ExperimentName,Subject,Session,Age,Clock.Information,Clock.StartTimeOfDay,Display.RefreshRate,Group,Handedness,RandomSeed,SessionDate,SessionTime,SessionTimeUtc,Sex,Block,Animacy,ButtonDistance,Condition,CorrectPractice,CorrectResponse,CriticalStimuli,DecisionScreen.ACC,DecisionScreen.RT,DecisionScreen.RTTime,FAST,FillerNonsensical,FillerSensical,FillerSentence,ItemNo,Landmark,MainCrossair.RT,MainCrossair.RTTime,MainDecision.ACC,MainDecision.CRESP,MainDecision.RESP,MainDecision.RT,MainDecision.RTTime,MainExperimentFirst,MainExperimentFirst.Cycle,MainExperimentFirst.Sample,MainExperimentSecond,MainExperimentSecond.Cycle,MainExperimentSecond.Sample,MainSentence.RT,MainSentence.RTTime,PracticeList,PracticeList.Cycle,PracticeList.Sample,PracticeSessionTwo,PracticeSessionTwo.Cycle,PracticeSessionTwo.Sample,Procedure,Running,Sensibility,Sentence,SentenceDisplay.RT,SentenceDisplay.RTTime,SentenceToDisplay,SLOW,Type,Verbmarcus_A,1,54229,19,"<?xml version=""1.0""?>\n<Clock xmlns:dt=""urn:schemas-microsoft-com:datatypes""><Description dt:dt=""string"">E-Prime Primary Realtime Clock</Description><StartTime><Timestamp dt:dt=""int"">0</Timestamp><DateUtc dt:dt=""string"">2014-10-28T18:54:38Z</DateUtc></StartTime><FrequencyChanges><FrequencyChange><Frequency dt:dt=""r8"">3192090000</Frequency><Timestamp dt:dt=""r8"">3.0420831897925E+15</Timestamp><Current dt:dt=""r8"">0</Current><DateUtc dt:dt=""string"">2014-10-28T18:54:38Z</DateUtc></FrequencyChange></FrequencyChanges></Clock>\n",10/28/14 11:54,75.001,Bodo,right,1430061016,10/28/14,11:54:38,6:54:38 PM,female,1,,,,5,,,0,5726,130615,,,,,,,,,,,,,,,,,,,,,,10,1,1,,,,PracticeProcedure,PracticeList,nonsense,The girl is glimmering off the flowers,504,124887,,,practice,marcus_A,1,54229,19,"<?xml version=""1.0""?>\n<Clock xmlns:dt=""urn:schemas-microsoft-com:datatypes""><Description dt:dt=""string"">E-Prime Primary Realtime Clock</Description><StartTime><Timestamp dt:dt=""int"">0</Timestamp><DateUtc dt:dt=""string"">2014-10-28T18:54:38Z</DateUtc></StartTime><FrequencyChanges><FrequencyChange><Frequency dt:dt=""r8"">3192090000</Frequency><Timestamp dt:dt=""r8"">3.0420831897925E+15</Timestamp><Current dt:dt=""r8"">0</Current><DateUtc dt:dt=""string"">2014-10-28T18:54:38Z</DateUtc></FrequencyChange></FrequencyChanges></Clock>\n",10/28/14 11:54,75.001,Bodo,right,1430061016,10/28/14,11:54:38,6:54:38 PM,female,2,,,,5,,,1,702,139191,,,,,,,,,,,,,,,,,,,,,,9,1,2,,,,PracticeProcedure,PracticeList,nonsense,The table is stretching by the tape,3611,138487,,,practice,marcus_A,1,54229,19,"<?xml version=""1.0""?>\n<Clock xmlns:dt=""urn:schemas-microsoft-com:datatypes""><Description dt:dt=""string"">E-Prime Primary Realtime Clock</Description><StartTime><Timestamp dt:dt=""int"">0</Timestamp><DateUtc dt:dt=""string"">2014-10-28T18:54:38Z</DateUtc></StartTime><FrequencyChanges><FrequencyChange><Frequency dt:dt=""r8"">3192090000</Frequency><Timestamp dt:dt=""r8"">3.0420831897925E+15</Timestamp><Current dt:dt=""r8"">0</Current><DateUtc dt:dt=""string"">2014-10-28T18:54:38Z</DateUtc></FrequencyChange></FrequencyChanges></Clock>\n",10/28/14 11:54,75.001,Bodo,right,1430061016,10/28/14,11:54:38,6:54:38 PM,female,3,,,,9,,,1,762,145238,,,,,,,,,,,,,,,,,,,,,,4,1,3,,,,PracticeProcedure,PracticeList,sense,The arrow is pointing to the exit,1141,144470,,,practice,marcus_A,1,54229,19,"<?xml version=""1.0""?>\n<Clock xmlns:dt=""urn:schemas-microsoft-com:datatypes""><Description dt:dt=""string"">E-Prime Primary Realtime Clock</Description><StartTime><Timestamp dt:dt=""int"">0</Timestamp><DateUtc dt:dt=""string"">2014-10-28T18:54:38Z</DateUtc></StartTime><FrequencyChanges><FrequencyChange><Frequency dt:dt=""r8"">3192090000</Frequency><Timestamp dt:dt=""r8"">3.0420831897925E+15</Timestamp><Current dt:dt=""r8"">0</Current><DateUtc dt:dt=""string"">2014-10-28T18:54:38Z</DateUtc></FrequencyChange></FrequencyChanges></Clock>\n",10/28/14 11:54,75.001,Bodo,right,1430061016,10/28/14,11:54:38,6:54:38 PM,female,4,,,,9,,,1,824,150646,,,,,,,,,,,,,,,,,,,,,,6,1,4,,,,PracticeProcedure,PracticeList,sense,The trees are blowing in the wind,885,149814,,,practice,marcus_A,1,54229,19,"<?xml version=""1.0""?>\n<Clock xmlns:dt=""urn:schemas-microsoft-com:datatypes""><Description dt:dt=""string"">E-Prime Primary Realtime Clock</Description><StartTime><Timestamp dt:dt=""int"">0</Timestamp><DateUtc dt:dt=""string"">2014-10-28T18:54:38Z</DateUtc></StartTime><FrequencyChanges><FrequencyChange><Frequency dt:dt=""r8"">3192090000</Frequency><Timestamp dt:dt=""r8"">3.0420831897925E+15</Timestamp><Current dt:dt=""r8"">0</Current><DateUtc dt:dt=""string"">2014-10-28T18:54:38Z</DateUtc></FrequencyChange></FrequencyChanges></Clock>\n",10/28/14 11:54,75.001,Bodo,right,1430061016,10/28/14,11:54:38,6:54:38 PM,female,5,,,,9,,,1,661,156150,,,,,,,,,,,,,,,,,,,,,,1,1,5,,,,PracticeProcedure,PracticeList,sense,The phone is ringing during class,949,155478,,,practice,marcus_A,1,54229,19,"<?xml version=""1.0""?>\n<Clock xmlns:dt=""urn:schemas-microsoft-com:datatypes""><Description dt:dt=""string"">E-Prime Primary Realtime Clock</Description><StartTime><Timestamp dt:dt=""int"">0</Timestamp><DateUtc dt:dt=""string"">2014-10-28T18:54:38Z</DateUtc></StartTime><FrequencyChanges><FrequencyChange><Frequency dt:dt=""r8"">3192090000</Frequency><Timestamp dt:dt=""r8"">3.0420831897925E+15</Timestamp><Current dt:dt=""r8"">0</Current><DateUtc dt:dt=""string"">2014-10-28T18:54:38Z</DateUtc></FrequencyChange></FrequencyChanges></Clock>\n",10/28/14 11:54,75.001,Bodo,right,1430061016,10/28/14,11:54:38,6:54:38 PM,female,6,,,,5,,,1,1235,162070,,,,,,,,,,,,,,,,,,,,,,8,1,6,,,,PracticeProcedure,PracticeList,nonsense,The floor concrete in the building,1107,160822,,,practice,marcus_A,1,54229,19,"<?xml version=""1.0""?>\n<Clock xmlns:dt=""urn:schemas-microsoft-com:datatypes""><Description dt:dt=""string"">E-Prime Primary Realtime Clock</Description><StartTime><Timestamp dt:dt=""int"">0</Timestamp><DateUtc dt:dt=""string"">2014-10-28T18:54:38Z</DateUtc></StartTime><FrequencyChanges><FrequencyChange><Frequency dt:dt=""r8"">3192090000</Frequency><Timestamp dt:dt=""r8"">3.0420831897925E+15</Timestamp><Current dt:dt=""r8"">0</Current><DateUtc dt:dt=""string"">2014-10-28T18:54:38Z</DateUtc></FrequencyChange></FrequencyChanges></Clock>\n",10/28/14 11:54,75.001,Bodo,right,1430061016,10/28/14,11:54:38,6:54:38 PM,female,7,,,,5,,,1,565,168054,,,,,,,,,,,,,,,,,,,,,,12,1,7,,,,PracticeProcedure,PracticeList,nonsense,The hawk is measuring under the highway,1789,167478,,,practice,marcus_A,1,54229,19,"<?xml version=""1.0""?>\n<Clock xmlns:dt=""urn:schemas-microsoft-com:datatypes""><Description dt:dt=""string"">E-Prime Primary Realtime Clock</Description><StartTime><Timestamp dt:dt=""int"">0</Timestamp><DateUtc dt:dt=""string"">2014-10-28T18:54:38Z</DateUtc></StartTime><FrequencyChanges><FrequencyChange><Frequency dt:dt=""r8"">3192090000</Frequency><Timestamp dt:dt=""r8"">3.0420831897925E+15</Timestamp><Current dt:dt=""r8"">0</Current><DateUtc dt:dt=""string"">2014-10-28T18:54:38Z</DateUtc></FrequencyChange></FrequencyChanges></Clock>\n",10/28/14 11:54,75.001,Bodo,right,1430061016,10/28/14,11:54:38,6:54:38 PM,female,8,,,,5,,,1,595,173750,,,,,,,,,,,,,,,,,,,,,,11,1,8,,,,PracticeProcedure,PracticeList,nonsense,The mountain is swimming under the bridge,1080,173142,,,practice,marcus_A,1,54229,19,"<?xml version=""1.0""?>\n<Clock xmlns:dt=""urn:schemas-microsoft-com:datatypes""><Description dt:dt=""string"">E-Prime Primary Realtime Clock</Description><StartTime><Timestamp dt:dt=""int"">0</Timestamp><DateUtc dt:dt=""string"">2014-10-28T18:54:38Z</DateUtc></StartTime><FrequencyChanges><FrequencyChange><Frequency dt:dt=""r8"">3192090000</Frequency><Timestamp dt:dt=""r8"">3.0420831897925E+15</Timestamp><Current dt:dt=""r8"">0</Current><DateUtc dt:dt=""string"">2014-10-28T18:54:38Z</DateUtc></FrequencyChange></FrequencyChanges></Clock>\n",10/28/14 11:54,75.001,Bodo,right,1430061016,10/28/14,11:54:38,6:54:38 PM,female,9,,,,9,,,1,732,179541,,,,,,,,,,,,,,,,,,,,,,3,1,9,,,,PracticeProcedure,PracticeList,sense,The cow is grazing in the field,916,178805,,,practice,marcus_A,1,54229,19,"<?xml version=""1.0""?>\n<Clock xmlns:dt=""urn:schemas-microsoft-com:datatypes""><Description dt:dt=""string"">E-Prime Primary Realtime Clock</Description><StartTime><Timestamp dt:dt=""int"">0</Timestamp><DateUtc dt:dt=""string"">2014-10-28T18:54:38Z</DateUtc></StartTime><FrequencyChanges><FrequencyChange><Frequency dt:dt=""r8"">3192090000</Frequency><Timestamp dt:dt=""r8"">3.0420831897925E+15</Timestamp><Current dt:dt=""r8"">0</Current><DateUtc dt:dt=""string"">2014-10-28T18:54:38Z</DateUtc></FrequencyChange></FrequencyChanges></Clock>\n",10/28/14 11:54,75.001,Bodo,right,1430061016,10/28/14,11:54:38,6:54:38 PM,female,10,,,,9,,,1,637,184725,,,,,,,,,,,,,,,,,,,,,,2,1,10,,,,PracticeProcedure,PracticeList,sense,The water is boiling in the pot,757,184085,,,practice,marcus_A,1,54229,19,"<?xml version=""1.0""?>\n<Clock xmlns:dt=""urn:schemas-microsoft-com:datatypes""><Description dt:dt=""string"">E-Prime Primary Realtime Clock</Description><StartTime><Timestamp dt:dt=""int"">0</Timestamp><DateUtc dt:dt=""string"">2014-10-28T18:54:38Z</DateUtc></StartTime><FrequencyChanges><FrequencyChange><Frequency dt:dt=""r8"">3192090000</Frequency><Timestamp dt:dt=""r8"">3.0420831897925E+15</Timestamp><Current dt:dt=""r8"">0</Current><DateUtc dt:dt=""string"">2014-10-28T18:54:38Z</DateUtc></FrequencyChange></FrequencyChanges></Clock>\n",10/28/14 11:54,75.001,Bodo,right,1430061016,10/28/14,11:54:38,6:54:38 PM,female,11,,,,5,,,1,538,189973,,,,,,,,,,,,,,,,,,,,,,7,1,11,,,,PracticeProcedure,PracticeList,nonsense,The sidewalk is coloring to the grass,861,189429,,,practice,marcus_A,1,54229,19,"<?xml version=""1.0""?>\n<Clock xmlns:dt=""urn:schemas-microsoft-com:datatypes""><Description dt:dt=""string"">E-Prime Primary Realtime Clock</Description><StartTime><Timestamp dt:dt=""int"">0</Timestamp><DateUtc dt:dt=""string"">2014-10-28T18:54:38Z</DateUtc></StartTime><FrequencyChanges><FrequencyChange><Frequency dt:dt=""r8"">3192090000</Frequency><Timestamp dt:dt=""r8"">3.0420831897925E+15</Timestamp><Current dt:dt=""r8"">0</Current><DateUtc dt:dt=""string"">2014-10-28T18:54:38Z</DateUtc></FrequencyChange></FrequencyChanges></Clock>\n",10/28/14 11:54,75.001,Bodo,right,1430061016,10/28/14,11:54:38,6:54:38 PM,female,12,,,,9,,,1,759,195381,,,,,,,,,,,,,,,,,,,,,,5,1,12,,,,PracticeProcedure,PracticeList,sense,The cup is sitting on the desk,885,194613,,,practice,marcus_A,1,54229,19,"<?xml version=""1.0""?>\n<Clock xmlns:dt=""urn:schemas-microsoft-com:datatypes""><Description dt:dt=""string"">E-Prime Primary Realtime Clock</Description><StartTime><Timestamp dt:dt=""int"">0</Timestamp><DateUtc dt:dt=""string"">2014-10-28T18:54:38Z</DateUtc></StartTime><FrequencyChanges><FrequencyChange><Frequency dt:dt=""r8"">3192090000</Frequency><Timestamp dt:dt=""r8"">3.0420831897925E+15</Timestamp><Current dt:dt=""r8"">0</Current><DateUtc dt:dt=""string"">2014-10-28T18:54:38Z</DateUtc></FrequencyChange></FrequencyChanges></Clock>\n",10/28/14 11:54,75.001,Bodo,right,1430061016,10/28/14,11:54:38,6:54:38 PM,female,13,inanimate,far,FILLER,,9,,,,,,,7,The book is on the table,25,other,1171,249619,1,9,9,854,251315,3,1,1,,,,830,250451,,,,,,,MainProcedure,MainExperimentFirst,sensible,,,,The book is on the table,,filler_sensible,marcus_A,1,54229,19,"<?xml version=""1.0""?>\n<Clock xmlns:dt=""urn:schemas-microsoft-com:datatypes""><Description dt:dt=""string"">E-Prime Primary Realtime Clock</Description><StartTime><Timestamp dt:dt=""int"">0</Timestamp><DateUtc dt:dt=""string"">2014-10-28T18:54:38Z</DateUtc></StartTime><FrequencyChanges><FrequencyChange><Frequency dt:dt=""r8"">3192090000</Frequency><Timestamp dt:dt=""r8"">3.0420831897925E+15</Timestamp><Current dt:dt=""r8"">0</Current><DateUtc dt:dt=""string"">2014-10-28T18:54:38Z</DateUtc></FrequencyChange></FrequencyChanges></Clock>\n",10/28/14 11:54,75.001,Bodo,right,1430061016,10/28/14,11:54:38,6:54:38 PM,female,14,animal,far,FILLER,,9,,,,,,,17,The mouse is hiding behind the wall,35,other,785,253619,1,9,9,467,254995,3,1,2,,,,894,254515,,,,,,,MainProcedure,MainExperimentFirst,sensible,,,,The mouse is hiding behind the wall,,filler_sensible,marcus_A,1,54229,19,"<?xml version=""1.0""?>\n<Clock xmlns:dt=""urn:schemas-microsoft-com:datatypes""><Description dt:dt=""string"">E-Prime Primary Realtime Clock</Description><StartTime><Timestamp dt:dt=""int"">0</Timestamp><DateUtc dt:dt=""string"">2014-10-28T18:54:38Z</DateUtc></StartTime><FrequencyChanges><FrequencyChange><Frequency dt:dt=""r8"">3192090000</Frequency><Timestamp dt:dt=""r8"">3.0420831897925E+15</Timestamp><Current dt:dt=""r8"">0</Current><DateUtc dt:dt=""string"">2014-10-28T18:54:38Z</DateUtc></FrequencyChange></FrequencyChanges></Clock>\n",10/28/14 11:54,75.001,Bodo,right,1430061016,10/28/14,11:54:38,6:54:38 PM,female,15,animal,close,FILLER,,5,,,,,,24,,The pigeon is wrinkling around the plug,60,other,721,257235,1,5,5,446,258707,4,1,3,,,,1011,258259,,,,,,,MainProcedure,MainExperimentFirst,nonsense,,,,The pigeon is wrinkling around the plug,,filler_nonsense,marcus_A,1,54229,19,"<?xml version=""1.0""?>\n<Clock xmlns:dt=""urn:schemas-microsoft-com:datatypes""><Description dt:dt=""string"">E-Prime Primary Realtime Clock</Description><StartTime><Timestamp dt:dt=""int"">0</Timestamp><DateUtc dt:dt=""string"">2014-10-28T18:54:38Z</DateUtc></StartTime><FrequencyChanges><FrequencyChange><Frequency dt:dt=""r8"">3192090000</Frequency><Timestamp dt:dt=""r8"">3.0420831897925E+15</Timestamp><Current dt:dt=""r8"">0</Current><DateUtc dt:dt=""string"">2014-10-28T18:54:38Z</DateUtc></FrequencyChange></FrequencyChanges></Clock>\n",10/28/14 11:54,75.001,Bodo,right,1430061016,10/28/14,11:54:38,6:54:38 PM,female,16,inanimate,far,FILLER,,9,,,,,,,9,The remote is underneath the couch,27,other,662,260883,1,9,9,758,262419,3,1,4,,,,763,261651,,,,,,,MainProcedure,MainExperimentFirst,sensible,,,,The remote is underneath the couch,,filler_sensible,marcus_A,1,54229,19,"<?xml version=""1.0""?>\n<Clock xmlns:dt=""urn:schemas-microsoft-com:datatypes""><Description dt:dt=""string"">E-Prime Primary Realtime Clock</Description><StartTime><Timestamp dt:dt=""int"">0</Timestamp><DateUtc dt:dt=""string"">2014-10-28T18:54:38Z</DateUtc></StartTime><FrequencyChanges><FrequencyChange><Frequency dt:dt=""r8"">3192090000</Frequency><Timestamp dt:dt=""r8"">3.0420831897925E+15</Timestamp><Current dt:dt=""r8"">0</Current><DateUtc dt:dt=""string"">2014-10-28T18:54:38Z</DateUtc></FrequencyChange></FrequencyChanges></Clock>\n",10/28/14 11:54,75.001,Bodo,right,1430061016,10/28/14,11:54:38,6:54:38 PM,female,17,human,close,FILLER,,5,,,,,,10,,The manager is pillowing across the coffee,46,across,635,264563,1,5,5,435,267283,4,1,5,,,,2267,266835,,,,,,,MainProcedure,MainExperimentFirst,nonsense,,,,The manager is pillowing across the coffee,,filler_nonsense,marcus_A,1,54229,19,"<?xml version=""1.0""?>\n<Clock xmlns:dt=""urn:schemas-microsoft-com:datatypes""><Description dt:dt=""string"">E-Prime Primary Realtime Clock</Description><StartTime><Timestamp dt:dt=""int"">0</Timestamp><DateUtc dt:dt=""string"">2014-10-28T18:54:38Z</DateUtc></StartTime><FrequencyChanges><FrequencyChange><Frequency dt:dt=""r8"">3192090000</Frequency><Timestamp dt:dt=""r8"">3.0420831897925E+15</Timestamp><Current dt:dt=""r8"">0</Current><DateUtc dt:dt=""string"">2014-10-28T18:54:38Z</DateUtc></FrequencyChange></FrequencyChanges></Clock>\n",10/28/14 11:54,75.001,Bodo,right,1430061016,10/28/14,11:54:38,6:54:38 PM,female,18,animal,far,FILLER,,9,,,,,,,15,The snake is hiding under a rock,33,other,537,269331,1,9,9,508,270675,3,1,6,,,,822,270163,,,,,,,MainProcedure,MainExperimentFirst,sensible,,,,The snake is hiding under a rock,,filler_sensible,marcus_A,1,54229,19,"<?xml version=""1.0""?>\n<Clock xmlns:dt=""urn:schemas-microsoft-com:datatypes""><Description dt:dt=""string"">E-Prime Primary Realtime Clock</Description><StartTime><Timestamp dt:dt=""int"">0</Timestamp><DateUtc dt:dt=""string"">2014-10-28T18:54:38Z</DateUtc></StartTime><FrequencyChanges><FrequencyChange><Frequency dt:dt=""r8"">3192090000</Frequency><Timestamp dt:dt=""r8"">3.0420831897925E+15</Timestamp><Current dt:dt=""r8"">0</Current><DateUtc dt:dt=""string"">2014-10-28T18:54:38Z</DateUtc></FrequencyChange></FrequencyChanges></Clock>\n",10/28/14 11:54,75.001,Bodo,right,1430061016,10/28/14,11:54:38,6:54:38 PM,female,19,inanimate,close,FILLER,,5,,,,,,33,,The stitching is blowing in the element,69,other,689,272883,1,5,5,1086,276147,4,1,7,,,,2172,275059,,,,,,,MainProcedure,MainExperimentFirst,nonsense,,,,The stitching is blowing in the element,,filler_nonsense,marcus_A,1,54229,19,"<?xml version=""1.0""?>\n<Clock xmlns:dt=""urn:schemas-microsoft-com:datatypes""><Description dt:dt=""string"">E-Prime Primary Realtime Clock</Description><StartTime><Timestamp dt:dt=""int"">0</Timestamp><DateUtc dt:dt=""string"">2014-10-28T18:54:38Z</DateUtc></StartTime><FrequencyChanges><FrequencyChange><Frequency dt:dt=""r8"">3192090000</Frequency><Timestamp dt:dt=""r8"">3.0420831897925E+15</Timestamp><Current dt:dt=""r8"">0</Current><DateUtc dt:dt=""string"">2014-10-28T18:54:38Z</DateUtc></FrequencyChange></FrequencyChanges></Clock>\n",10/28/14 11:54,75.001,Bodo,right,1430061016,10/28/14,11:54:38,6:54:38 PM,female,20,human,far,SLOW,,9,4,,,,The robber is dashing across the patio,,,,4,across,630,278291,1,9,9,980,280467,1,1,8,,,,1174,279475,,,,,,,MainProcedure,MainExperimentFirst,sensible,,,,The robber is crawling across the patio,The robber is crawling across the patio,primary,crawl/dashmarcus_A,1,54229,19,"<?xml version=""1.0""?>\n<Clock xmlns:dt=""urn:schemas-microsoft-com:datatypes""><Description dt:dt=""string"">E-Prime Primary Realtime Clock</Description><StartTime><Timestamp dt:dt=""int"">0</Timestamp><DateUtc dt:dt=""string"">2014-10-28T18:54:38Z</DateUtc></StartTime><FrequencyChanges><FrequencyChange><Frequency dt:dt=""r8"">3192090000</Frequency><Timestamp dt:dt=""r8"">3.0420831897925E+15</Timestamp><Current dt:dt=""r8"">0</Current><DateUtc dt:dt=""string"">2014-10-28T18:54:38Z</DateUtc></FrequencyChange></FrequencyChanges></Clock>\n",10/28/14 11:54,75.001,Bodo,right,1430061016,10/28/14,11:54:38,6:54:38 PM,female,21,human,close,FILLER,,5,,,,,,3,,The mother is ringing across the cat,39,across,502,282483,1,5,5,470,283891,4,1,9,,,,924,283411,,,,,,,MainProcedure,MainExperimentFirst,nonsense,,,,The mother is ringing across the cat,,filler_nonsense,marcus_A,1,54229,19,"<?xml version=""1.0""?>\n<Clock xmlns:dt=""urn:schemas-microsoft-com:datatypes""><Description dt:dt=""string"">E-Prime Primary Realtime Clock</Description><StartTime><Timestamp dt:dt=""int"">0</Timestamp><DateUtc dt:dt=""string"">2014-10-28T18:54:38Z</DateUtc></StartTime><FrequencyChanges><FrequencyChange><Frequency dt:dt=""r8"">3192090000</Frequency><Timestamp dt:dt=""r8"">3.0420831897925E+15</Timestamp><Current dt:dt=""r8"">0</Current><DateUtc dt:dt=""string"">2014-10-28T18:54:38Z</DateUtc></FrequencyChange></FrequencyChanges></Clock>\n",10/28/14 11:54,75.001,Bodo,right,1430061016,10/28/14,11:54:38,6:54:38 PM,female,22,animal,close,FILLER,,5,,,,,,22,,The horse is emerging down the shoes,58,other,468,285875,1,5,5,1651,289138,4,1,10,,,,1587,287474,,,,,,,MainProcedure,MainExperimentFirst,nonsense,,,,The horse is emerging down the shoes,,filler_nonsense,marcus_A,1,54229,19,"<?xml version=""1.0""?>\n<Clock xmlns:dt=""urn:schemas-microsoft-com:datatypes""><Description dt:dt=""string"">E-Prime Primary Realtime Clock</Description><StartTime><Timestamp dt:dt=""int"">0</Timestamp><DateUtc dt:dt=""string"">2014-10-28T18:54:38Z</DateUtc></StartTime><FrequencyChanges><FrequencyChange><Frequency dt:dt=""r8"">3192090000</Frequency><Timestamp dt:dt=""r8"">3.0420831897925E+15</Timestamp><Current dt:dt=""r8"">0</Current><DateUtc dt:dt=""string"">2014-10-28T18:54:38Z</DateUtc></FrequencyChange></FrequencyChanges></Clock>\n",10/28/14 11:54,75.001,Bodo,right,1430061016,10/28/14,11:54:38,6:54:38 PM,female,23,human,close,FILLER,,5,,,,,,14,,The trainer is walling up the horse,50,other,603,291250,1,5,5,989,293970,4,1,11,,,,1717,292978,,,,,,,MainProcedure,MainExperimentFirst,nonsense,,,,The trainer is walling up the horse,,filler_nonsense,marcus_A,1,54229,19,"<?xml version=""1.0""?>\n<Clock xmlns:dt=""urn:schemas-microsoft-com:datatypes""><Description dt:dt=""string"">E-Prime Primary Realtime Clock</Description><StartTime><Timestamp dt:dt=""int"">0</Timestamp><DateUtc dt:dt=""string"">2014-10-28T18:54:38Z</DateUtc></StartTime><FrequencyChanges><FrequencyChange><Frequency dt:dt=""r8"">3192090000</Frequency><Timestamp dt:dt=""r8"">3.0420831897925E+15</Timestamp><Current dt:dt=""r8"">0</Current><DateUtc dt:dt=""string"">2014-10-28T18:54:38Z</DateUtc></FrequencyChange></FrequencyChanges></Clock>\n",10/28/14 11:54,75.001,Bodo,right,1430061016,10/28/14,11:54:38,6:54:38 PM,female,24,human,far,FAST,,9,3,,,,The boy is dashing across the lawn,,,,3,across,563,296050,1,9,9,886,298226,2,1,12,,,,1269,297330,,,,,,,MainProcedure,MainExperimentFirst,sensible,,,,The boy is dashing across the lawn,The boy is crawling across the lawn,primary,crawl/dashmarcus_A,1,54229,19,"<?xml version=""1.0""?>\n<Clock xmlns:dt=""urn:schemas-microsoft-com:datatypes""><Description dt:dt=""string"">E-Prime Primary Realtime Clock</Description><StartTime><Timestamp dt:dt=""int"">0</Timestamp><DateUtc dt:dt=""string"">2014-10-28T18:54:38Z</DateUtc></StartTime><FrequencyChanges><FrequencyChange><Frequency dt:dt=""r8"">3192090000</Frequency><Timestamp dt:dt=""r8"">3.0420831897925E+15</Timestamp><Current dt:dt=""r8"">0</Current><DateUtc dt:dt=""string"">2014-10-28T18:54:38Z</DateUtc></FrequencyChange></FrequencyChanges></Clock>\n",10/28/14 11:54,75.001,Bodo,right,1430061016,10/28/14,11:54:38,6:54:38 PM,female,25,inanimate,far,FILLER,,9,,,,,,,1,The apple is rotting on the ground,19,other,502,300242,1,9,9,499,301586,3,1,13,,,,827,301074,,,,,,,MainProcedure,MainExperimentFirst,sensible,,,,The apple is rotting on the ground,,filler_sensible,marcus_A,1,54229,19,"<?xml version=""1.0""?>\n<Clock xmlns:dt=""urn:schemas-microsoft-com:datatypes""><Description dt:dt=""string"">E-Prime Primary Realtime Clock</Description><StartTime><Timestamp dt:dt=""int"">0</Timestamp><DateUtc dt:dt=""string"">2014-10-28T18:54:38Z</DateUtc></StartTime><FrequencyChanges><FrequencyChange><Frequency dt:dt=""r8"">3192090000</Frequency><Timestamp dt:dt=""r8"">3.0420831897925E+15</Timestamp><Current dt:dt=""r8"">0</Current><DateUtc dt:dt=""string"">2014-10-28T18:54:38Z</DateUtc></FrequencyChange></FrequencyChanges></Clock>\n",10/28/14 11:54,75.001,Bodo,right,1430061016,10/28/14,11:54:38,6:54:38 PM,female,26,human,far,SLOW,,9,17,,,,The baseball player is dancing across home plate,,,,17,across,534,303634,1,9,9,630,306930,1,1,14,,,,2643,306290,,,,,,,MainProcedure,MainExperimentFirst,sensible,,,,The baseball player is shooting across home plate,The baseball player is shooting across home plate,primary,shoot/dancemarcus_A,1,54229,19,"<?xml version=""1.0""?>\n<Clock xmlns:dt=""urn:schemas-microsoft-com:datatypes""><Description dt:dt=""string"">E-Prime Primary Realtime Clock</Description><StartTime><Timestamp dt:dt=""int"">0</Timestamp><DateUtc dt:dt=""string"">2014-10-28T18:54:38Z</DateUtc></StartTime><FrequencyChanges><FrequencyChange><Frequency dt:dt=""r8"">3192090000</Frequency><Timestamp dt:dt=""r8"">3.0420831897925E+15</Timestamp><Current dt:dt=""r8"">0</Current><DateUtc dt:dt=""string"">2014-10-28T18:54:38Z</DateUtc></FrequencyChange></FrequencyChanges></Clock>\n",10/28/14 11:54,75.001,Bodo,right,1430061016,10/28/14,11:54:38,6:54:38 PM,female,27,inanimate,close,FILLER,,5,,,,,,27,,The bump is rolling across the rope,63,across,1651,310098,1,5,5,734,313554,4,1,15,,,,2718,312818,,,,,,,MainProcedure,MainExperimentFirst,nonsense,,,,The bump is rolling across the rope,,filler_nonsense,marcus_A,1,54229,19,"<?xml version=""1.0""?>\n<Clock xmlns:dt=""urn:schemas-microsoft-com:datatypes""><Description dt:dt=""string"">E-Prime Primary Realtime Clock</Description><StartTime><Timestamp dt:dt=""int"">0</Timestamp><DateUtc dt:dt=""string"">2014-10-28T18:54:38Z</DateUtc></StartTime><FrequencyChanges><FrequencyChange><Frequency dt:dt=""r8"">3192090000</Frequency><Timestamp dt:dt=""r8"">3.0420831897925E+15</Timestamp><Current dt:dt=""r8"">0</Current><DateUtc dt:dt=""string"">2014-10-28T18:54:38Z</DateUtc></FrequencyChange></FrequencyChanges></Clock>\n",10/28/14 11:54,75.001,Bodo,right,1430061016,10/28/14,11:54:38,6:54:38 PM,female,28,human,far,SLOW,,9,8,,,,The student is zooming across the university,,,,7,across,720,315794,1,9,9,2267,320754,1,1,16,,,,2675,318482,,,,,,,MainProcedure,MainExperimentFirst,sensible,,,,The student is meandering across the university,The student is meandering across the university,primary,meander/zoommarcus_A,1,54229,19,"<?xml version=""1.0""?>\n<Clock xmlns:dt=""urn:schemas-microsoft-com:datatypes""><Description dt:dt=""string"">E-Prime Primary Realtime Clock</Description><StartTime><Timestamp dt:dt=""int"">0</Timestamp><DateUtc dt:dt=""string"">2014-10-28T18:54:38Z</DateUtc></StartTime><FrequencyChanges><FrequencyChange><Frequency dt:dt=""r8"">3192090000</Frequency><Timestamp dt:dt=""r8"">3.0420831897925E+15</Timestamp><Current dt:dt=""r8"">0</Current><DateUtc dt:dt=""string"">2014-10-28T18:54:38Z</DateUtc></FrequencyChange></FrequencyChanges></Clock>\n",10/28/14 11:54,75.001,Bodo,right,1430061016,10/28/14,11:54:38,6:54:38 PM,female,29,human,close,FILLER,,5,,,,,,1,,The teacher is puddling across the ceiling,37,across,1231,323505,1,5,5,506,325073,4,1,17,,,,1047,324561,,,,,,,MainProcedure,MainExperimentFirst,nonsense,,,,The teacher is puddling across the ceiling,,filler_nonsense,marcus_A,1,54229,19,"<?xml version=""1.0""?>\n<Clock xmlns:dt=""urn:schemas-microsoft-com:datatypes""><Description dt:dt=""string"">E-Prime Primary Realtime Clock</Description><StartTime><Timestamp dt:dt=""int"">0</Timestamp><DateUtc dt:dt=""string"">2014-10-28T18:54:38Z</DateUtc></StartTime><FrequencyChanges><FrequencyChange><Frequency dt:dt=""r8"">3192090000</Frequency><Timestamp dt:dt=""r8"">3.0420831897925E+15</Timestamp><Current dt:dt=""r8"">0</Current><DateUtc dt:dt=""string"">2014-10-28T18:54:38Z</DateUtc></FrequencyChange></FrequencyChanges></Clock>\n",10/28/14 11:54,75.001,Bodo,right,1430061016,10/28/14,11:54:38,6:54:38 PM,female,30,human,close,FILLER,,5,,,,,,6,,The dentist is coding across the beer,42,across,432,327025,1,5,5,669,329169,4,1,18,,,,1464,328497,,,,,,,MainProcedure,MainExperimentFirst,nonsense,,,,The dentist is coding across the beer,,filler_nonsense,marcus_A,1,54229,19,"<?xml version=""1.0""?>\n<Clock xmlns:dt=""urn:schemas-microsoft-com:datatypes""><Description dt:dt=""string"">E-Prime Primary Realtime Clock</Description><StartTime><Timestamp dt:dt=""int"">0</Timestamp><DateUtc dt:dt=""string"">2014-10-28T18:54:38Z</DateUtc></StartTime><FrequencyChanges><FrequencyChange><Frequency dt:dt=""r8"">3192090000</Frequency><Timestamp dt:dt=""r8"">3.0420831897925E+15</Timestamp><Current dt:dt=""r8"">0</Current><DateUtc dt:dt=""string"">2014-10-28T18:54:38Z</DateUtc></FrequencyChange></FrequencyChanges></Clock>\n",10/28/14 11:54,75.001,Bodo,right,1430061016,10/28/14,11:54:38,6:54:38 PM,female,31,human,far,SLOW,,9,10,,,,The performer is zipping across the stage,,,,10,across,402,331089,0,9,5,850,333617,1,1,19,,,,1654,332754,,,,,,,MainProcedure,MainExperimentFirst,sensible,,,,The performer is inching across the stage,The performer is inching across the stage,primary,inch/zipmarcus_A,1,54229,19,"<?xml version=""1.0""?>\n<Clock xmlns:dt=""urn:schemas-microsoft-com:datatypes""><Description dt:dt=""string"">E-Prime Primary Realtime Clock</Description><StartTime><Timestamp dt:dt=""int"">0</Timestamp><DateUtc dt:dt=""string"">2014-10-28T18:54:38Z</DateUtc></StartTime><FrequencyChanges><FrequencyChange><Frequency dt:dt=""r8"">3192090000</Frequency><Timestamp dt:dt=""r8"">3.0420831897925E+15</Timestamp><Current dt:dt=""r8"">0</Current><DateUtc dt:dt=""string"">2014-10-28T18:54:38Z</DateUtc></FrequencyChange></FrequencyChanges></Clock>\n",10/28/14 11:54,75.001,Bodo,right,1430061016,10/28/14,11:54:38,6:54:38 PM,female,32,inanimate,close,FILLER,,5,,,,,,36,,The gravel is purring across the desk,72,other,410,335537,1,5,5,562,337649,4,1,20,,,,1533,337073,,,,,,,MainProcedure,MainExperimentFirst,nonsense,,,,The gravel is purring across the desk,,filler_nonsense,marcus_A,1,54229,19,"<?xml version=""1.0""?>\n<Clock xmlns:dt=""urn:schemas-microsoft-com:datatypes""><Description dt:dt=""string"">E-Prime Primary Realtime Clock</Description><StartTime><Timestamp dt:dt=""int"">0</Timestamp><DateUtc dt:dt=""string"">2014-10-28T18:54:38Z</DateUtc></StartTime><FrequencyChanges><FrequencyChange><Frequency dt:dt=""r8"">3192090000</Frequency><Timestamp dt:dt=""r8"">3.0420831897925E+15</Timestamp><Current dt:dt=""r8"">0</Current><DateUtc dt:dt=""string"">2014-10-28T18:54:38Z</DateUtc></FrequencyChange></FrequencyChanges></Clock>\n",10/28/14 11:54,75.001,Bodo,right,1430061016,10/28/14,11:54:38,6:54:38 PM,female,33,animal,far,FILLER,,9,,,,,,,13,The bee is stinging his arm,31,other,434,339601,1,9,9,765,341425,3,1,21,,,,1050,340657,,,,,,,MainProcedure,MainExperimentFirst,sensible,,,,The bee is stinging his arm,,filler_sensible,marcus_A,1,54229,19,"<?xml version=""1.0""?>\n<Clock xmlns:dt=""urn:schemas-microsoft-com:datatypes""><Description dt:dt=""string"">E-Prime Primary Realtime Clock</Description><StartTime><Timestamp dt:dt=""int"">0</Timestamp><DateUtc dt:dt=""string"">2014-10-28T18:54:38Z</DateUtc></StartTime><FrequencyChanges><FrequencyChange><Frequency dt:dt=""r8"">3192090000</Frequency><Timestamp dt:dt=""r8"">3.0420831897925E+15</Timestamp><Current dt:dt=""r8"">0</Current><DateUtc dt:dt=""string"">2014-10-28T18:54:38Z</DateUtc></FrequencyChange></FrequencyChanges></Clock>\n",10/28/14 11:54,75.001,Bodo,right,1430061016,10/28/14,11:54:38,6:54:38 PM,female,34,human,close,FILLER,,5,,,,,,16,,The salesman is sinking down the pen,52,other,1077,344017,1,5,5,402,346129,4,1,22,,,,1693,345713,,,,,,,MainProcedure,MainExperimentFirst,nonsense,,,,The salesman is sinking down the pen,,filler_nonsense,marcus_A,1,54229,19,"<?xml version=""1.0""?>\n<Clock xmlns:dt=""urn:schemas-microsoft-com:datatypes""><Description dt:dt=""string"">E-Prime Primary Realtime Clock</Description><StartTime><Timestamp dt:dt=""int"">0</Timestamp><DateUtc dt:dt=""string"">2014-10-28T18:54:38Z</DateUtc></StartTime><FrequencyChanges><FrequencyChange><Frequency dt:dt=""r8"">3192090000</Frequency><Timestamp dt:dt=""r8"">3.0420831897925E+15</Timestamp><Current dt:dt=""r8"">0</Current><DateUtc dt:dt=""string"">2014-10-28T18:54:38Z</DateUtc></FrequencyChange></FrequencyChanges></Clock>\n",10/28/14 11:54,75.001,Bodo,right,1430061016,10/28/14,11:54:38,6:54:38 PM,female,35,animal,close,FILLER,,5,,,,,,20,,The ant is parading on the gum,56,other,434,348081,0,5,9,693,350193,4,1,23,,,,1402,349489,,,,,,,MainProcedure,MainExperimentFirst,nonsense,,,,The ant is parading on the gum,,filler_nonsense,marcus_A,1,54229,19,"<?xml version=""1.0""?>\n<Clock xmlns:dt=""urn:schemas-microsoft-com:datatypes""><Description dt:dt=""string"">E-Prime Primary Realtime Clock</Description><StartTime><Timestamp dt:dt=""int"">0</Timestamp><DateUtc dt:dt=""string"">2014-10-28T18:54:38Z</DateUtc></StartTime><FrequencyChanges><FrequencyChange><Frequency dt:dt=""r8"">3192090000</Frequency><Timestamp dt:dt=""r8"">3.0420831897925E+15</Timestamp><Current dt:dt=""r8"">0</Current><DateUtc dt:dt=""string"">2014-10-28T18:54:38Z</DateUtc></FrequencyChange></FrequencyChanges></Clock>\n",10/28/14 11:54,75.001,Bodo,right,1430061016,10/28/14,11:54:38,6:54:38 PM,female,36,human,far,FAST,,9,12,,,,The thief is speeding across the yard,,,,12,across,669,352369,1,9,9,536,354769,2,1,24,,,,1845,354225,,,,,,,MainProcedure,MainExperimentFirst,sensible,,,,The thief is speeding across the yard,The thief is creeping across the yard,primary,creep/speedmarcus_A,1,54229,19,"<?xml version=""1.0""?>\n<Clock xmlns:dt=""urn:schemas-microsoft-com:datatypes""><Description dt:dt=""string"">E-Prime Primary Realtime Clock</Description><StartTime><Timestamp dt:dt=""int"">0</Timestamp><DateUtc dt:dt=""string"">2014-10-28T18:54:38Z</DateUtc></StartTime><FrequencyChanges><FrequencyChange><Frequency dt:dt=""r8"">3192090000</Frequency><Timestamp dt:dt=""r8"">3.0420831897925E+15</Timestamp><Current dt:dt=""r8"">0</Current><DateUtc dt:dt=""string"">2014-10-28T18:54:38Z</DateUtc></FrequencyChange></FrequencyChanges></Clock>\n",10/28/14 11:54,75.001,Bodo,right,1430061016,10/28/14,11:54:38,6:54:38 PM,female,37,human,far,SLOW,,9,18,,,,The football player is dancing across the end zone,,,,18,across,531,356817,1,9,9,702,359376,1,1,25,,,,1852,358672,,,,,,,MainProcedure,MainExperimentFirst,sensible,,,,The football player is shooting across the end zone,The football player is shooting across the end zone,primary,shoot/dancemarcus_A,1,54229,19,"<?xml version=""1.0""?>\n<Clock xmlns:dt=""urn:schemas-microsoft-com:datatypes""><Description dt:dt=""string"">E-Prime Primary Realtime Clock</Description><StartTime><Timestamp dt:dt=""int"">0</Timestamp><DateUtc dt:dt=""string"">2014-10-28T18:54:38Z</DateUtc></StartTime><FrequencyChanges><FrequencyChange><Frequency dt:dt=""r8"">3192090000</Frequency><Timestamp dt:dt=""r8"">3.0420831897925E+15</Timestamp><Current dt:dt=""r8"">0</Current><DateUtc dt:dt=""string"">2014-10-28T18:54:38Z</DateUtc></FrequencyChange></FrequencyChanges></Clock>\n",10/28/14 11:54,75.001,Bodo,right,1430061016,10/28/14,11:54:38,6:54:38 PM,female,38,animal,far,FILLER,,9,,,,,,,18,The pig is playing in the mud,36,other,506,361392,1,9,9,500,363120,3,1,26,,,,1202,362608,,,,,,,MainProcedure,MainExperimentFirst,sensible,,,,The pig is playing in the mud,,filler_sensible,marcus_A,1,54229,19,"<?xml version=""1.0""?>\n<Clock xmlns:dt=""urn:schemas-microsoft-com:datatypes""><Description dt:dt=""string"">E-Prime Primary Realtime Clock</Description><StartTime><Timestamp dt:dt=""int"">0</Timestamp><DateUtc dt:dt=""string"">2014-10-28T18:54:38Z</DateUtc></StartTime><FrequencyChanges><FrequencyChange><Frequency dt:dt=""r8"">3192090000</Frequency><Timestamp dt:dt=""r8"">3.0420831897925E+15</Timestamp><Current dt:dt=""r8"">0</Current><DateUtc dt:dt=""string"">2014-10-28T18:54:38Z</DateUtc></FrequencyChange></FrequencyChanges></Clock>\n",10/28/14 11:54,75.001,Bodo,right,1430061016,10/28/14,11:54:38,6:54:38 PM,female,39,human,close,FILLER,,5,,,,,,7,,The girl is exaggerating under the phone,43,across,535,365168,1,5,5,412,366992,4,1,27,,,,1396,366576,,,,,,,MainProcedure,MainExperimentFirst,nonsense,,,,The girl is exaggerating under the phone,,filler_nonsense,marcus_A,1,54229,19,"<?xml version=""1.0""?>\n<Clock xmlns:dt=""urn:schemas-microsoft-com:datatypes""><Description dt:dt=""string"">E-Prime Primary Realtime Clock</Description><StartTime><Timestamp dt:dt=""int"">0</Timestamp><DateUtc dt:dt=""string"">2014-10-28T18:54:38Z</DateUtc></StartTime><FrequencyChanges><FrequencyChange><Frequency dt:dt=""r8"">3192090000</Frequency><Timestamp dt:dt=""r8"">3.0420831897925E+15</Timestamp><Current dt:dt=""r8"">0</Current><DateUtc dt:dt=""string"">2014-10-28T18:54:38Z</DateUtc></FrequencyChange></FrequencyChanges></Clock>\n",10/28/14 11:54,75.001,Bodo,right,1430061016,10/28/14,11:54:38,6:54:38 PM,female,40,human,far,FAST,,9,7,,,,The woman is zooming across the campus,,,,7,across,476,368976,1,9,9,724,370704,2,1,28,,,,988,369968,,,,,,,MainProcedure,MainExperimentFirst,sensible,,,,The woman is zooming across the campus,The woman is meandering across the campus,primary,meander/zoommarcus_A,1,54229,19,"<?xml version=""1.0""?>\n<Clock xmlns:dt=""urn:schemas-microsoft-com:datatypes""><Description dt:dt=""string"">E-Prime Primary Realtime Clock</Description><StartTime><Timestamp dt:dt=""int"">0</Timestamp><DateUtc dt:dt=""string"">2014-10-28T18:54:38Z</DateUtc></StartTime><FrequencyChanges><FrequencyChange><Frequency dt:dt=""r8"">3192090000</Frequency><Timestamp dt:dt=""r8"">3.0420831897925E+15</Timestamp><Current dt:dt=""r8"">0</Current><DateUtc dt:dt=""string"">2014-10-28T18:54:38Z</DateUtc></FrequencyChange></FrequencyChanges></Clock>\n",10/28/14 11:54,75.001,Bodo,right,1430061016,10/28/14,11:54:38,6:54:38 PM,female,41,animal,close,FILLER,,5,,,,,,21,,The rabbit is asking in the carpet,57,other,564,372784,1,5,5,1402,375248,4,1,29,,,,1047,373840,,,,,,,MainProcedure,MainExperimentFirst,nonsense,,,,The rabbit is asking in the carpet,,filler_nonsense,marcus_A,1,54229,19,"<?xml version=""1.0""?>\n<Clock xmlns:dt=""urn:schemas-microsoft-com:datatypes""><Description dt:dt=""string"">E-Prime Primary Realtime Clock</Description><StartTime><Timestamp dt:dt=""int"">0</Timestamp><DateUtc dt:dt=""string"">2014-10-28T18:54:38Z</DateUtc></StartTime><FrequencyChanges><FrequencyChange><Frequency dt:dt=""r8"">3192090000</Frequency><Timestamp dt:dt=""r8"">3.0420831897925E+15</Timestamp><Current dt:dt=""r8"">0</Current><DateUtc dt:dt=""string"">2014-10-28T18:54:38Z</DateUtc></FrequencyChange></FrequencyChanges></Clock>\n",10/28/14 11:54,75.001,Bodo,right,1430061016,10/28/14,11:54:38,6:54:38 PM,female,42,human,far,FAST,,9,9,,,,The dancer is zipping across the floor,,,,9,across,850,377616,0,9,5,663,379856,2,1,30,,,,1565,379184,,,,,,,MainProcedure,MainExperimentFirst,sensible,,,,The dancer is zipping across the floor,The dancer is inching across the floor,primary,inch/zipmarcus_A,1,54229,19,"<?xml version=""1.0""?>\n<Clock xmlns:dt=""urn:schemas-microsoft-com:datatypes""><Description dt:dt=""string"">E-Prime Primary Realtime Clock</Description><StartTime><Timestamp dt:dt=""int"">0</Timestamp><DateUtc dt:dt=""string"">2014-10-28T18:54:38Z</DateUtc></StartTime><FrequencyChanges><FrequencyChange><Frequency dt:dt=""r8"">3192090000</Frequency><Timestamp dt:dt=""r8"">3.0420831897925E+15</Timestamp><Current dt:dt=""r8"">0</Current><DateUtc dt:dt=""string"">2014-10-28T18:54:38Z</DateUtc></FrequencyChange></FrequencyChanges></Clock>\n",10/28/14 11:54,75.001,Bodo,right,1430061016,10/28/14,11:54:38,6:54:38 PM,female,43,human,close,FILLER,,5,,,,,,2,,The mailman is tingling across the silver,38,across,506,381872,1,5,5,575,383888,4,1,31,,,,1439,383312,,,,,,,MainProcedure,MainExperimentFirst,nonsense,,,,The mailman is tingling across the silver,,filler_nonsense,marcus_A,1,54229,19,"<?xml version=""1.0""?>\n<Clock xmlns:dt=""urn:schemas-microsoft-com:datatypes""><Description dt:dt=""string"">E-Prime Primary Realtime Clock</Description><StartTime><Timestamp dt:dt=""int"">0</Timestamp><DateUtc dt:dt=""string"">2014-10-28T18:54:38Z</DateUtc></StartTime><FrequencyChanges><FrequencyChange><Frequency dt:dt=""r8"">3192090000</Frequency><Timestamp dt:dt=""r8"">3.0420831897925E+15</Timestamp><Current dt:dt=""r8"">0</Current><DateUtc dt:dt=""string"">2014-10-28T18:54:38Z</DateUtc></FrequencyChange></FrequencyChanges></Clock>\n",10/28/14 11:54,75.001,Bodo,right,1430061016,10/28/14,11:54:38,6:54:38 PM,female,44,human,close,FILLER,,5,,,,,,12,,The grandfather is hiding across the email,48,across,562,385968,1,5,5,1690,388816,4,1,32,,,,1141,387120,,,,,,,MainProcedure,MainExperimentFirst,nonsense,,,,The grandfather is hiding across the email,,filler_nonsense,marcus_A,1,54229,19,"<?xml version=""1.0""?>\n<Clock xmlns:dt=""urn:schemas-microsoft-com:datatypes""><Description dt:dt=""string"">E-Prime Primary Realtime Clock</Description><StartTime><Timestamp dt:dt=""int"">0</Timestamp><DateUtc dt:dt=""string"">2014-10-28T18:54:38Z</DateUtc></StartTime><FrequencyChanges><FrequencyChange><Frequency dt:dt=""r8"">3192090000</Frequency><Timestamp dt:dt=""r8"">3.0420831897925E+15</Timestamp><Current dt:dt=""r8"">0</Current><DateUtc dt:dt=""string"">2014-10-28T18:54:38Z</DateUtc></FrequencyChange></FrequencyChanges></Clock>\n",10/28/14 11:54,75.001,Bodo,right,1430061016,10/28/14,11:54:38,6:54:38 PM,female,45,inanimate,close,FILLER,,5,,,,,,32,,The square is bouncing to the beer,68,other,601,390927,1,5,5,532,392591,4,1,33,,,,1109,392048,,,,,,,MainProcedure,MainExperimentFirst,nonsense,,,,The square is bouncing to the beer,,filler_nonsense,marcus_A,1,54229,19,"<?xml version=""1.0""?>\n<Clock xmlns:dt=""urn:schemas-microsoft-com:datatypes""><Description dt:dt=""string"">E-Prime Primary Realtime Clock</Description><StartTime><Timestamp dt:dt=""int"">0</Timestamp><DateUtc dt:dt=""string"">2014-10-28T18:54:38Z</DateUtc></StartTime><FrequencyChanges><FrequencyChange><Frequency dt:dt=""r8"">3192090000</Frequency><Timestamp dt:dt=""r8"">3.0420831897925E+15</Timestamp><Current dt:dt=""r8"">0</Current><DateUtc dt:dt=""string"">2014-10-28T18:54:38Z</DateUtc></FrequencyChange></FrequencyChanges></Clock>\n",10/28/14 11:54,75.001,Bodo,right,1430061016,10/28/14,11:54:38,6:54:38 PM,female,46,human,close,FILLER,,5,,,,,,17,,The clerk is heating in the chips,53,other,700,394799,1,5,5,702,396335,4,1,34,,,,825,395631,,,,,,,MainProcedure,MainExperimentFirst,nonsense,,,,The clerk is heating in the chips,,filler_nonsense,marcus_A,1,54229,19,"<?xml version=""1.0""?>\n<Clock xmlns:dt=""urn:schemas-microsoft-com:datatypes""><Description dt:dt=""string"">E-Prime Primary Realtime Clock</Description><StartTime><Timestamp dt:dt=""int"">0</Timestamp><DateUtc dt:dt=""string"">2014-10-28T18:54:38Z</DateUtc></StartTime><FrequencyChanges><FrequencyChange><Frequency dt:dt=""r8"">3192090000</Frequency><Timestamp dt:dt=""r8"">3.0420831897925E+15</Timestamp><Current dt:dt=""r8"">0</Current><DateUtc dt:dt=""string"">2014-10-28T18:54:38Z</DateUtc></FrequencyChange></FrequencyChanges></Clock>\n",10/28/14 11:54,75.001,Bodo,right,1430061016,10/28/14,11:54:38,6:54:38 PM,female,47,inanimate,far,FILLER,,9,,,,,,,11,The bathroom is down the hall,29,other,441,398287,1,9,9,601,399727,3,1,35,,,,820,399119,,,,,,,MainProcedure,MainExperimentFirst,sensible,,,,The bathroom is down the hall,,filler_sensible,marcus_A,1,54229,19,"<?xml version=""1.0""?>\n<Clock xmlns:dt=""urn:schemas-microsoft-com:datatypes""><Description dt:dt=""string"">E-Prime Primary Realtime Clock</Description><StartTime><Timestamp dt:dt=""int"">0</Timestamp><DateUtc dt:dt=""string"">2014-10-28T18:54:38Z</DateUtc></StartTime><FrequencyChanges><FrequencyChange><Frequency dt:dt=""r8"">3192090000</Frequency><Timestamp dt:dt=""r8"">3.0420831897925E+15</Timestamp><Current dt:dt=""r8"">0</Current><DateUtc dt:dt=""string"">2014-10-28T18:54:38Z</DateUtc></FrequencyChange></FrequencyChanges></Clock>\n",10/28/14 11:54,75.001,Bodo,right,1430061016,10/28/14,11:54:38,6:54:38 PM,female,48,animal,far,FILLER,,9,,,,,,,14,The cat is resting in the corner,32,other,529,401775,1,9,9,660,403119,3,1,36,,,,668,402447,,,,,,,MainProcedure,MainExperimentFirst,sensible,,,,The cat is resting in the corner,,filler_sensible,marcus_A,1,54229,19,"<?xml version=""1.0""?>\n<Clock xmlns:dt=""urn:schemas-microsoft-com:datatypes""><Description dt:dt=""string"">E-Prime Primary Realtime Clock</Description><StartTime><Timestamp dt:dt=""int"">0</Timestamp><DateUtc dt:dt=""string"">2014-10-28T18:54:38Z</DateUtc></StartTime><FrequencyChanges><FrequencyChange><Frequency dt:dt=""r8"">3192090000</Frequency><Timestamp dt:dt=""r8"">3.0420831897925E+15</Timestamp><Current dt:dt=""r8"">0</Current><DateUtc dt:dt=""string"">2014-10-28T18:54:38Z</DateUtc></FrequencyChange></FrequencyChanges></Clock>\n",10/28/14 11:54,75.001,Bodo,right,1430061016,10/28/14,11:54:38,6:54:38 PM,female,49,,,,9,,,1,1086,758021,,,,,,,,,,,,,,,,,,,,,,,,,10,1,1,PracticeProcedure,PracticeSessionTwo,nonsense,The girl is glimmering off the flowers,1238,756933,,,practice,marcus_A,1,54229,19,"<?xml version=""1.0""?>\n<Clock xmlns:dt=""urn:schemas-microsoft-com:datatypes""><Description dt:dt=""string"">E-Prime Primary Realtime Clock</Description><StartTime><Timestamp dt:dt=""int"">0</Timestamp><DateUtc dt:dt=""string"">2014-10-28T18:54:38Z</DateUtc></StartTime><FrequencyChanges><FrequencyChange><Frequency dt:dt=""r8"">3192090000</Frequency><Timestamp dt:dt=""r8"">3.0420831897925E+15</Timestamp><Current dt:dt=""r8"">0</Current><DateUtc dt:dt=""string"">2014-10-28T18:54:38Z</DateUtc></FrequencyChange></FrequencyChanges></Clock>\n",10/28/14 11:54,75.001,Bodo,right,1430061016,10/28/14,11:54:38,6:54:38 PM,female,50,,,,5,,,1,564,762885,,,,,,,,,,,,,,,,,,,,,,,,,1,1,2,PracticeProcedure,PracticeSessionTwo,sense,The phone is ringing during class,894,762309,,,practice,marcus_A,1,54229,19,"<?xml version=""1.0""?>\n<Clock xmlns:dt=""urn:schemas-microsoft-com:datatypes""><Description dt:dt=""string"">E-Prime Primary Realtime Clock</Description><StartTime><Timestamp dt:dt=""int"">0</Timestamp><DateUtc dt:dt=""string"">2014-10-28T18:54:38Z</DateUtc></StartTime><FrequencyChanges><FrequencyChange><Frequency dt:dt=""r8"">3192090000</Frequency><Timestamp dt:dt=""r8"">3.0420831897925E+15</Timestamp><Current dt:dt=""r8"">0</Current><DateUtc dt:dt=""string"">2014-10-28T18:54:38Z</DateUtc></FrequencyChange></FrequencyChanges></Clock>\n",10/28/14 11:54,75.001,Bodo,right,1430061016,10/28/14,11:54:38,6:54:38 PM,female,51,,,,9,,,1,662,768197,,,,,,,,,,,,,,,,,,,,,,,,,12,1,3,PracticeProcedure,PracticeSessionTwo,nonsense,The hawk is measuring under the highway,1337,767525,,,practice,marcus_A,1,54229,19,"<?xml version=""1.0""?>\n<Clock xmlns:dt=""urn:schemas-microsoft-com:datatypes""><Description dt:dt=""string"">E-Prime Primary Realtime Clock</Description><StartTime><Timestamp dt:dt=""int"">0</Timestamp><DateUtc dt:dt=""string"">2014-10-28T18:54:38Z</DateUtc></StartTime><FrequencyChanges><FrequencyChange><Frequency dt:dt=""r8"">3192090000</Frequency><Timestamp dt:dt=""r8"">3.0420831897925E+15</Timestamp><Current dt:dt=""r8"">0</Current><DateUtc dt:dt=""string"">2014-10-28T18:54:38Z</DateUtc></FrequencyChange></FrequencyChanges></Clock>\n",10/28/14 11:54,75.001,Bodo,right,1430061016,10/28/14,11:54:38,6:54:38 PM,female,52,,,,5,,,1,313,773061,,,,,,,,,,,,,,,,,,,,,,,,,6,1,4,PracticeProcedure,PracticeSessionTwo,sense,The trees are blowing in the wind,1046,772741,,,practice,marcus_A,1,54229,19,"<?xml version=""1.0""?>\n<Clock xmlns:dt=""urn:schemas-microsoft-com:datatypes""><Description dt:dt=""string"">E-Prime Primary Realtime Clock</Description><StartTime><Timestamp dt:dt=""int"">0</Timestamp><DateUtc dt:dt=""string"">2014-10-28T18:54:38Z</DateUtc></StartTime><FrequencyChanges><FrequencyChange><Frequency dt:dt=""r8"">3192090000</Frequency><Timestamp dt:dt=""r8"">3.0420831897925E+15</Timestamp><Current dt:dt=""r8"">0</Current><DateUtc dt:dt=""string"">2014-10-28T18:54:38Z</DateUtc></FrequencyChange></FrequencyChanges></Clock>\n",10/28/14 11:54,75.001,Bodo,right,1430061016,10/28/14,11:54:38,6:54:38 PM,female,53,,,,5,,,1,468,777669,,,,,,,,,,,,,,,,,,,,,,,,,2,1,5,PracticeProcedure,PracticeSessionTwo,sense,The water is boiling in the pot,790,777191,,,practice,marcus_A,1,54229,19,"<?xml version=""1.0""?>\n<Clock xmlns:dt=""urn:schemas-microsoft-com:datatypes""><Description dt:dt=""string"">E-Prime Primary Realtime Clock</Description><StartTime><Timestamp dt:dt=""int"">0</Timestamp><DateUtc dt:dt=""string"">2014-10-28T18:54:38Z</DateUtc></StartTime><FrequencyChanges><FrequencyChange><Frequency dt:dt=""r8"">3192090000</Frequency><Timestamp dt:dt=""r8"">3.0420831897925E+15</Timestamp><Current dt:dt=""r8"">0</Current><DateUtc dt:dt=""string"">2014-10-28T18:54:38Z</DateUtc></FrequencyChange></FrequencyChanges></Clock>\n",10/28/14 11:54,75.001,Bodo,right,1430061016,10/28/14,11:54:38,6:54:38 PM,female,54,,,,5,,,1,467,782308,,,,,,,,,,,,,,,,,,,,,,,,,5,1,6,PracticeProcedure,PracticeSessionTwo,sense,The cup is sitting on the desk,787,781828,,,practice,marcus_A,1,54229,19,"<?xml version=""1.0""?>\n<Clock xmlns:dt=""urn:schemas-microsoft-com:datatypes""><Description dt:dt=""string"">E-Prime Primary Realtime Clock</Description><StartTime><Timestamp dt:dt=""int"">0</Timestamp><DateUtc dt:dt=""string"">2014-10-28T18:54:38Z</DateUtc></StartTime><FrequencyChanges><FrequencyChange><Frequency dt:dt=""r8"">3192090000</Frequency><Timestamp dt:dt=""r8"">3.0420831897925E+15</Timestamp><Current dt:dt=""r8"">0</Current><DateUtc dt:dt=""string"">2014-10-28T18:54:38Z</DateUtc></FrequencyChange></FrequencyChanges></Clock>\n",10/28/14 11:54,75.001,Bodo,right,1430061016,10/28/14,11:54:38,6:54:38 PM,female,55,,,,5,,,1,667,787428,,,,,,,,,,,,,,,,,,,,,,,,,4,1,7,PracticeProcedure,PracticeSessionTwo,sense,The arrow is pointing to the exit,982,786756,,,practice,marcus_A,1,54229,19,"<?xml version=""1.0""?>\n<Clock xmlns:dt=""urn:schemas-microsoft-com:datatypes""><Description dt:dt=""string"">E-Prime Primary Realtime Clock</Description><StartTime><Timestamp dt:dt=""int"">0</Timestamp><DateUtc dt:dt=""string"">2014-10-28T18:54:38Z</DateUtc></StartTime><FrequencyChanges><FrequencyChange><Frequency dt:dt=""r8"">3192090000</Frequency><Timestamp dt:dt=""r8"">3.0420831897925E+15</Timestamp><Current dt:dt=""r8"">0</Current><DateUtc dt:dt=""string"">2014-10-28T18:54:38Z</DateUtc></FrequencyChange></FrequencyChanges></Clock>\n",10/28/14 11:54,75.001,Bodo,right,1430061016,10/28/14,11:54:38,6:54:38 PM,female,56,,,,9,,,1,534,792228,,,,,,,,,,,,,,,,,,,,,,,,,7,1,8,PracticeProcedure,PracticeSessionTwo,nonsense,The sidewalk is coloring to the grass,856,791684,,,practice,marcus_A,1,54229,19,"<?xml version=""1.0""?>\n<Clock xmlns:dt=""urn:schemas-microsoft-com:datatypes""><Description dt:dt=""string"">E-Prime Primary Realtime Clock</Description><StartTime><Timestamp dt:dt=""int"">0</Timestamp><DateUtc dt:dt=""string"">2014-10-28T18:54:38Z</DateUtc></StartTime><FrequencyChanges><FrequencyChange><Frequency dt:dt=""r8"">3192090000</Frequency><Timestamp dt:dt=""r8"">3.0420831897925E+15</Timestamp><Current dt:dt=""r8"">0</Current><DateUtc dt:dt=""string"">2014-10-28T18:54:38Z</DateUtc></FrequencyChange></FrequencyChanges></Clock>\n",10/28/14 11:54,75.001,Bodo,right,1430061016,10/28/14,11:54:38,6:54:38 PM,female,57,,,,5,,,1,403,796644,,,,,,,,,,,,,,,,,,,,,,,,,3,1,9,PracticeProcedure,PracticeSessionTwo,sense,The cow is grazing in the field,694,796228,,,practice,marcus_A,1,54229,19,"<?xml version=""1.0""?>\n<Clock xmlns:dt=""urn:schemas-microsoft-com:datatypes""><Description dt:dt=""string"">E-Prime Primary Realtime Clock</Description><StartTime><Timestamp dt:dt=""int"">0</Timestamp><DateUtc dt:dt=""string"">2014-10-28T18:54:38Z</DateUtc></StartTime><FrequencyChanges><FrequencyChange><Frequency dt:dt=""r8"">3192090000</Frequency><Timestamp dt:dt=""r8"">3.0420831897925E+15</Timestamp><Current dt:dt=""r8"">0</Current><DateUtc dt:dt=""string"">2014-10-28T18:54:38Z</DateUtc></FrequencyChange></FrequencyChanges></Clock>\n",10/28/14 11:54,75.001,Bodo,right,1430061016,10/28/14,11:54:38,6:54:38 PM,female,58,,,,9,,,1,467,801348,,,,,,,,,,,,,,,,,,,,,,,,,11,1,10,PracticeProcedure,PracticeSessionTwo,nonsense,The mountain is swimming under the bridge,734,800868,,,practice,marcus_A,1,54229,19,"<?xml version=""1.0""?>\n<Clock xmlns:dt=""urn:schemas-microsoft-com:datatypes""><Description dt:dt=""string"">E-Prime Primary Realtime Clock</Description><StartTime><Timestamp dt:dt=""int"">0</Timestamp><DateUtc dt:dt=""string"">2014-10-28T18:54:38Z</DateUtc></StartTime><FrequencyChanges><FrequencyChange><Frequency dt:dt=""r8"">3192090000</Frequency><Timestamp dt:dt=""r8"">3.0420831897925E+15</Timestamp><Current dt:dt=""r8"">0</Current><DateUtc dt:dt=""string"">2014-10-28T18:54:38Z</DateUtc></FrequencyChange></FrequencyChanges></Clock>\n",10/28/14 11:54,75.001,Bodo,right,1430061016,10/28/14,11:54:38,6:54:38 PM,female,59,,,,9,,,1,1017,807524,,,,,,,,,,,,,,,,,,,,,,,,,8,1,11,PracticeProcedure,PracticeSessionTwo,nonsense,The floor concrete in the building,1779,806500,,,practice,marcus_A,1,54229,19,"<?xml version=""1.0""?>\n<Clock xmlns:dt=""urn:schemas-microsoft-com:datatypes""><Description dt:dt=""string"">E-Prime Primary Realtime Clock</Description><StartTime><Timestamp dt:dt=""int"">0</Timestamp><DateUtc dt:dt=""string"">2014-10-28T18:54:38Z</DateUtc></StartTime><FrequencyChanges><FrequencyChange><Frequency dt:dt=""r8"">3192090000</Frequency><Timestamp dt:dt=""r8"">3.0420831897925E+15</Timestamp><Current dt:dt=""r8"">0</Current><DateUtc dt:dt=""string"">2014-10-28T18:54:38Z</DateUtc></FrequencyChange></FrequencyChanges></Clock>\n",10/28/14 11:54,75.001,Bodo,right,1430061016,10/28/14,11:54:38,6:54:38 PM,female,60,,,,9,,,1,889,812516,,,,,,,,,,,,,,,,,,,,,,,,,9,1,12,PracticeProcedure,PracticeSessionTwo,nonsense,The table is stretching by the tape,633,811620,,,practice,marcus_A,1,54229,19,"<?xml version=""1.0""?>\n<Clock xmlns:dt=""urn:schemas-microsoft-com:datatypes""><Description dt:dt=""string"">E-Prime Primary Realtime Clock</Description><StartTime><Timestamp dt:dt=""int"">0</Timestamp><DateUtc dt:dt=""string"">2014-10-28T18:54:38Z</DateUtc></StartTime><FrequencyChanges><FrequencyChange><Frequency dt:dt=""r8"">3192090000</Frequency><Timestamp dt:dt=""r8"">3.0420831897925E+15</Timestamp><Current dt:dt=""r8"">0</Current><DateUtc dt:dt=""string"">2014-10-28T18:54:38Z</DateUtc></FrequencyChange></FrequencyChanges></Clock>\n",10/28/14 11:54,75.001,Bodo,right,1430061016,10/28/14,11:54:38,6:54:38 PM,female,61,inanimate,close,FILLER,,5,,,,,,,5,The house is standing on the hill,23,other,976,829123,1,5,5,533,830467,,,,3,1,1,789,829923,,,,,,,MainProcedure,MainExperimentSecond,sensible,,,,The house is standing on the hill,,filler_sensible,marcus_A,1,54229,19,"<?xml version=""1.0""?>\n<Clock xmlns:dt=""urn:schemas-microsoft-com:datatypes""><Description dt:dt=""string"">E-Prime Primary Realtime Clock</Description><StartTime><Timestamp dt:dt=""int"">0</Timestamp><DateUtc dt:dt=""string"">2014-10-28T18:54:38Z</DateUtc></StartTime><FrequencyChanges><FrequencyChange><Frequency dt:dt=""r8"">3192090000</Frequency><Timestamp dt:dt=""r8"">3.0420831897925E+15</Timestamp><Current dt:dt=""r8"">0</Current><DateUtc dt:dt=""string"">2014-10-28T18:54:38Z</DateUtc></FrequencyChange></FrequencyChanges></Clock>\n",10/28/14 11:54,75.001,Bodo,right,1430061016,10/28/14,11:54:38,6:54:38 PM,female,62,inanimate,close,FILLER,,5,,,,,,,6,The picture is hanging on the wall,24,other,624,832611,1,5,5,379,833859,,,,3,1,2,861,833475,,,,,,,MainProcedure,MainExperimentSecond,sensible,,,,The picture is hanging on the wall,,filler_sensible,marcus_A,1,54229,19,"<?xml version=""1.0""?>\n<Clock xmlns:dt=""urn:schemas-microsoft-com:datatypes""><Description dt:dt=""string"">E-Prime Primary Realtime Clock</Description><StartTime><Timestamp dt:dt=""int"">0</Timestamp><DateUtc dt:dt=""string"">2014-10-28T18:54:38Z</DateUtc></StartTime><FrequencyChanges><FrequencyChange><Frequency dt:dt=""r8"">3192090000</Frequency><Timestamp dt:dt=""r8"">3.0420831897925E+15</Timestamp><Current dt:dt=""r8"">0</Current><DateUtc dt:dt=""string"">2014-10-28T18:54:38Z</DateUtc></FrequencyChange></FrequencyChanges></Clock>\n",10/28/14 11:54,75.001,Bodo,right,1430061016,10/28/14,11:54:38,6:54:38 PM,female,63,inanimate,close,FILLER,,5,,,,,,,3,The cloud is covering up the sun,21,other,405,835779,1,5,5,440,837027,,,,3,1,3,792,836579,,,,,,,MainProcedure,MainExperimentSecond,sensible,,,,The cloud is covering up the sun,,filler_sensible,marcus_A,1,54229,19,"<?xml version=""1.0""?>\n<Clock xmlns:dt=""urn:schemas-microsoft-com:datatypes""><Description dt:dt=""string"">E-Prime Primary Realtime Clock</Description><StartTime><Timestamp dt:dt=""int"">0</Timestamp><DateUtc dt:dt=""string"">2014-10-28T18:54:38Z</DateUtc></StartTime><FrequencyChanges><FrequencyChange><Frequency dt:dt=""r8"">3192090000</Frequency><Timestamp dt:dt=""r8"">3.0420831897925E+15</Timestamp><Current dt:dt=""r8"">0</Current><DateUtc dt:dt=""string"">2014-10-28T18:54:38Z</DateUtc></FrequencyChange></FrequencyChanges></Clock>\n",10/28/14 11:54,75.001,Bodo,right,1430061016,10/28/14,11:54:38,6:54:38 PM,female,64,inanimate,close,FILLER,,5,,,,,,,8,The plate is on the counter,26,other,336,838883,1,5,5,536,840163,,,,3,1,4,725,839619,,,,,,,MainProcedure,MainExperimentSecond,sensible,,,,The plate is on the counter,,filler_sensible,marcus_A,1,54229,19,"<?xml version=""1.0""?>\n<Clock xmlns:dt=""urn:schemas-microsoft-com:datatypes""><Description dt:dt=""string"">E-Prime Primary Realtime Clock</Description><StartTime><Timestamp dt:dt=""int"">0</Timestamp><DateUtc dt:dt=""string"">2014-10-28T18:54:38Z</DateUtc></StartTime><FrequencyChanges><FrequencyChange><Frequency dt:dt=""r8"">3192090000</Frequency><Timestamp dt:dt=""r8"">3.0420831897925E+15</Timestamp><Current dt:dt=""r8"">0</Current><DateUtc dt:dt=""string"">2014-10-28T18:54:38Z</DateUtc></FrequencyChange></FrequencyChanges></Clock>\n",10/28/14 11:54,75.001,Bodo,right,1430061016,10/28/14,11:54:38,6:54:38 PM,female,65,human,far,FILLER,,9,,,,,,13,,The boxer is cupping over the hill,49,other,371,842051,1,9,9,435,843875,,,,4,1,5,1373,843427,,,,,,,MainProcedure,MainExperimentSecond,nonsense,,,,The boxer is cupping over the hill,,filler_nonsense,marcus_A,1,54229,19,"<?xml version=""1.0""?>\n<Clock xmlns:dt=""urn:schemas-microsoft-com:datatypes""><Description dt:dt=""string"">E-Prime Primary Realtime Clock</Description><StartTime><Timestamp dt:dt=""int"">0</Timestamp><DateUtc dt:dt=""string"">2014-10-28T18:54:38Z</DateUtc></StartTime><FrequencyChanges><FrequencyChange><Frequency dt:dt=""r8"">3192090000</Frequency><Timestamp dt:dt=""r8"">3.0420831897925E+15</Timestamp><Current dt:dt=""r8"">0</Current><DateUtc dt:dt=""string"">2014-10-28T18:54:38Z</DateUtc></FrequencyChange></FrequencyChanges></Clock>\n",10/28/14 11:54,75.001,Bodo,right,1430061016,10/28/14,11:54:38,6:54:38 PM,female,66,inanimate,close,FILLER,,5,,,,,,,12,The wall is painted white,30,other,376,845763,1,5,5,501,847075,,,,3,1,6,789,846563,,,,,,,MainProcedure,MainExperimentSecond,sensible,,,,The wall is painted white,,filler_sensible,marcus_A,1,54229,19,"<?xml version=""1.0""?>\n<Clock xmlns:dt=""urn:schemas-microsoft-com:datatypes""><Description dt:dt=""string"">E-Prime Primary Realtime Clock</Description><StartTime><Timestamp dt:dt=""int"">0</Timestamp><DateUtc dt:dt=""string"">2014-10-28T18:54:38Z</DateUtc></StartTime><FrequencyChanges><FrequencyChange><Frequency dt:dt=""r8"">3192090000</Frequency><Timestamp dt:dt=""r8"">3.0420831897925E+15</Timestamp><Current dt:dt=""r8"">0</Current><DateUtc dt:dt=""string"">2014-10-28T18:54:38Z</DateUtc></FrequencyChange></FrequencyChanges></Clock>\n",10/28/14 11:54,75.001,Bodo,right,1430061016,10/28/14,11:54:38,6:54:38 PM,female,67,inanimate,far,FILLER,,9,,,,,,34,,The cable is babbling under the roof,70,other,344,848931,1,9,9,467,850467,,,,4,1,7,1053,849987,,,,,,,MainProcedure,MainExperimentSecond,nonsense,,,,The cable is babbling under the roof,,filler_nonsense,marcus_A,1,54229,19,"<?xml version=""1.0""?>\n<Clock xmlns:dt=""urn:schemas-microsoft-com:datatypes""><Description dt:dt=""string"">E-Prime Primary Realtime Clock</Description><StartTime><Timestamp dt:dt=""int"">0</Timestamp><DateUtc dt:dt=""string"">2014-10-28T18:54:38Z</DateUtc></StartTime><FrequencyChanges><FrequencyChange><Frequency dt:dt=""r8"">3192090000</Frequency><Timestamp dt:dt=""r8"">3.0420831897925E+15</Timestamp><Current dt:dt=""r8"">0</Current><DateUtc dt:dt=""string"">2014-10-28T18:54:38Z</DateUtc></FrequencyChange></FrequencyChanges></Clock>\n",10/28/14 11:54,75.001,Bodo,right,1430061016,10/28/14,11:54:38,6:54:38 PM,female,68,inanimate,close,FILLER,,5,,,,,,,2,The balloon is tied to a string,20,other,303,852290,0,5,9,1428,854402,,,,3,1,8,668,852962,,,,,,,MainProcedure,MainExperimentSecond,sensible,,,,The balloon is tied to a string,,filler_sensible,marcus_A,1,54229,19,"<?xml version=""1.0""?>\n<Clock xmlns:dt=""urn:schemas-microsoft-com:datatypes""><Description dt:dt=""string"">E-Prime Primary Realtime Clock</Description><StartTime><Timestamp dt:dt=""int"">0</Timestamp><DateUtc dt:dt=""string"">2014-10-28T18:54:38Z</DateUtc></StartTime><FrequencyChanges><FrequencyChange><Frequency dt:dt=""r8"">3192090000</Frequency><Timestamp dt:dt=""r8"">3.0420831897925E+15</Timestamp><Current dt:dt=""r8"">0</Current><DateUtc dt:dt=""string"">2014-10-28T18:54:38Z</DateUtc></FrequencyChange></FrequencyChanges></Clock>\n",10/28/14 11:54,75.001,Bodo,right,1430061016,10/28/14,11:54:38,6:54:38 PM,female,69,human,far,FILLER,,9,,,,,,4,,The doctor is flapping across the bark,40,across,338,856258,1,9,9,597,858210,,,,4,1,9,1335,857602,,,,,,,MainProcedure,MainExperimentSecond,nonsense,,,,The doctor is flapping across the bark,,filler_nonsense,marcus_A,1,54229,19,"<?xml version=""1.0""?>\n<Clock xmlns:dt=""urn:schemas-microsoft-com:datatypes""><Description dt:dt=""string"">E-Prime Primary Realtime Clock</Description><StartTime><Timestamp dt:dt=""int"">0</Timestamp><DateUtc dt:dt=""string"">2014-10-28T18:54:38Z</DateUtc></StartTime><FrequencyChanges><FrequencyChange><Frequency dt:dt=""r8"">3192090000</Frequency><Timestamp dt:dt=""r8"">3.0420831897925E+15</Timestamp><Current dt:dt=""r8"">0</Current><DateUtc dt:dt=""string"">2014-10-28T18:54:38Z</DateUtc></FrequencyChange></FrequencyChanges></Clock>\n",10/28/14 11:54,75.001,Bodo,right,1430061016,10/28/14,11:54:38,6:54:38 PM,female,70,human,far,FILLER,,9,,,,,,8,,The operator is swallowing across the air,44,across,346,860066,1,9,9,538,862178,,,,4,1,10,1554,861634,,,,,,,MainProcedure,MainExperimentSecond,nonsense,,,,The operator is swallowing across the air,,filler_nonsense,marcus_A,1,54229,19,"<?xml version=""1.0""?>\n<Clock xmlns:dt=""urn:schemas-microsoft-com:datatypes""><Description dt:dt=""string"">E-Prime Primary Realtime Clock</Description><StartTime><Timestamp dt:dt=""int"">0</Timestamp><DateUtc dt:dt=""string"">2014-10-28T18:54:38Z</DateUtc></StartTime><FrequencyChanges><FrequencyChange><Frequency dt:dt=""r8"">3192090000</Frequency><Timestamp dt:dt=""r8"">3.0420831897925E+15</Timestamp><Current dt:dt=""r8"">0</Current><DateUtc dt:dt=""string"">2014-10-28T18:54:38Z</DateUtc></FrequencyChange></FrequencyChanges></Clock>\n",10/28/14 11:54,75.001,Bodo,right,1430061016,10/28/14,11:54:38,6:54:38 PM,female,71,human,close,FAST,,5,6,,,,The girl is racing across the parking lot,,,,6,across,373,864066,1,5,5,701,866274,,,,2,1,11,1490,865570,,,,,,,MainProcedure,MainExperimentSecond,sensible,,,,The girl is racing across the parking lot,The girl is hobbling across the parking lot,primary,hobble/racemarcus_A,1,54229,19,"<?xml version=""1.0""?>\n<Clock xmlns:dt=""urn:schemas-microsoft-com:datatypes""><Description dt:dt=""string"">E-Prime Primary Realtime Clock</Description><StartTime><Timestamp dt:dt=""int"">0</Timestamp><DateUtc dt:dt=""string"">2014-10-28T18:54:38Z</DateUtc></StartTime><FrequencyChanges><FrequencyChange><Frequency dt:dt=""r8"">3192090000</Frequency><Timestamp dt:dt=""r8"">3.0420831897925E+15</Timestamp><Current dt:dt=""r8"">0</Current><DateUtc dt:dt=""string"">2014-10-28T18:54:38Z</DateUtc></FrequencyChange></FrequencyChanges></Clock>\n",10/28/14 11:54,75.001,Bodo,right,1430061016,10/28/14,11:54:38,6:54:38 PM,female,72,human,far,FILLER,,9,,,,,,9,,The driver is opening across the shelf,45,across,343,868130,1,9,9,415,870402,,,,4,1,12,1853,869986,,,,,,,MainProcedure,MainExperimentSecond,nonsense,,,,The driver is opening across the shelf,,filler_nonsense,marcus_A,1,54229,19,"<?xml version=""1.0""?>\n<Clock xmlns:dt=""urn:schemas-microsoft-com:datatypes""><Description dt:dt=""string"">E-Prime Primary Realtime Clock</Description><StartTime><Timestamp dt:dt=""int"">0</Timestamp><DateUtc dt:dt=""string"">2014-10-28T18:54:38Z</DateUtc></StartTime><FrequencyChanges><FrequencyChange><Frequency dt:dt=""r8"">3192090000</Frequency><Timestamp dt:dt=""r8"">3.0420831897925E+15</Timestamp><Current dt:dt=""r8"">0</Current><DateUtc dt:dt=""string"">2014-10-28T18:54:38Z</DateUtc></FrequencyChange></FrequencyChanges></Clock>\n",10/28/14 11:54,75.001,Bodo,right,1430061016,10/28/14,11:54:38,6:54:38 PM,female,73,inanimate,close,FILLER,,5,,,,,,,4,The hair is plugging up the drain,22,other,402,872322,1,5,5,727,874274,,,,3,1,13,1205,873538,,,,,,,MainProcedure,MainExperimentSecond,sensible,,,,The hair is plugging up the drain,,filler_sensible,marcus_A,1,54229,19,"<?xml version=""1.0""?>\n<Clock xmlns:dt=""urn:schemas-microsoft-com:datatypes""><Description dt:dt=""string"">E-Prime Primary Realtime Clock</Description><StartTime><Timestamp dt:dt=""int"">0</Timestamp><DateUtc dt:dt=""string"">2014-10-28T18:54:38Z</DateUtc></StartTime><FrequencyChanges><FrequencyChange><Frequency dt:dt=""r8"">3192090000</Frequency><Timestamp dt:dt=""r8"">3.0420831897925E+15</Timestamp><Current dt:dt=""r8"">0</Current><DateUtc dt:dt=""string"">2014-10-28T18:54:38Z</DateUtc></FrequencyChange></FrequencyChanges></Clock>\n",10/28/14 11:54,75.001,Bodo,right,1430061016,10/28/14,11:54:38,6:54:38 PM,female,74,inanimate,far,FILLER,,9,,,,,,25,,The arrow is slithering across the bottle,61,across,567,876354,1,9,9,381,878274,,,,4,1,14,1530,877890,,,,,,,MainProcedure,MainExperimentSecond,nonsense,,,,The arrow is slithering across the bottle,,filler_nonsense,marcus_A,1,54229,19,"<?xml version=""1.0""?>\n<Clock xmlns:dt=""urn:schemas-microsoft-com:datatypes""><Description dt:dt=""string"">E-Prime Primary Realtime Clock</Description><StartTime><Timestamp dt:dt=""int"">0</Timestamp><DateUtc dt:dt=""string"">2014-10-28T18:54:38Z</DateUtc></StartTime><FrequencyChanges><FrequencyChange><Frequency dt:dt=""r8"">3192090000</Frequency><Timestamp dt:dt=""r8"">3.0420831897925E+15</Timestamp><Current dt:dt=""r8"">0</Current><DateUtc dt:dt=""string"">2014-10-28T18:54:38Z</DateUtc></FrequencyChange></FrequencyChanges></Clock>\n",10/28/14 11:54,75.001,Bodo,right,1430061016,10/28/14,11:54:38,6:54:38 PM,female,75,human,close,FAST,,5,14,,,,The fireman is running across the rooftop,,,,14,across,567,880354,1,5,5,440,882306,,,,2,1,15,1498,881858,,,,,,,MainProcedure,MainExperimentSecond,sensible,,,,The fireman is running across the rooftop,The fireman is tiptoing across the rooftop,primary,tiptoe/runmarcus_A,1,54229,19,"<?xml version=""1.0""?>\n<Clock xmlns:dt=""urn:schemas-microsoft-com:datatypes""><Description dt:dt=""string"">E-Prime Primary Realtime Clock</Description><StartTime><Timestamp dt:dt=""int"">0</Timestamp><DateUtc dt:dt=""string"">2014-10-28T18:54:38Z</DateUtc></StartTime><FrequencyChanges><FrequencyChange><Frequency dt:dt=""r8"">3192090000</Frequency><Timestamp dt:dt=""r8"">3.0420831897925E+15</Timestamp><Current dt:dt=""r8"">0</Current><DateUtc dt:dt=""string"">2014-10-28T18:54:38Z</DateUtc></FrequencyChange></FrequencyChanges></Clock>\n",10/28/14 11:54,75.001,Bodo,right,1430061016,10/28/14,11:54:38,6:54:38 PM,female,76,human,close,SLOW,,5,5,,,,The man is racing across the desert,,,,5,across,349,884162,1,5,5,1146,886626,,,,1,1,16,1301,885474,,,,,,,MainProcedure,MainExperimentSecond,sensible,,,,The man is hobbling across the desert,The man is hobbling across the desert,primary,hobble/racemarcus_A,1,54229,19,"<?xml version=""1.0""?>\n<Clock xmlns:dt=""urn:schemas-microsoft-com:datatypes""><Description dt:dt=""string"">E-Prime Primary Realtime Clock</Description><StartTime><Timestamp dt:dt=""int"">0</Timestamp><DateUtc dt:dt=""string"">2014-10-28T18:54:38Z</DateUtc></StartTime><FrequencyChanges><FrequencyChange><Frequency dt:dt=""r8"">3192090000</Frequency><Timestamp dt:dt=""r8"">3.0420831897925E+15</Timestamp><Current dt:dt=""r8"">0</Current><DateUtc dt:dt=""string"">2014-10-28T18:54:38Z</DateUtc></FrequencyChange></FrequencyChanges></Clock>\n",10/28/14 11:54,75.001,Bodo,right,1430061016,10/28/14,11:54:38,6:54:38 PM,female,77,inanimate,close,FILLER,,5,,,,,,,10,The ice cream is in the freezer,28,other,399,888545,1,5,5,476,890209,,,,3,1,17,1182,889729,,,,,,,MainProcedure,MainExperimentSecond,sensible,,,,The ice cream is in the freezer,,filler_sensible,marcus_A,1,54229,19,"<?xml version=""1.0""?>\n<Clock xmlns:dt=""urn:schemas-microsoft-com:datatypes""><Description dt:dt=""string"">E-Prime Primary Realtime Clock</Description><StartTime><Timestamp dt:dt=""int"">0</Timestamp><DateUtc dt:dt=""string"">2014-10-28T18:54:38Z</DateUtc></StartTime><FrequencyChanges><FrequencyChange><Frequency dt:dt=""r8"">3192090000</Frequency><Timestamp dt:dt=""r8"">3.0420831897925E+15</Timestamp><Current dt:dt=""r8"">0</Current><DateUtc dt:dt=""string"">2014-10-28T18:54:38Z</DateUtc></FrequencyChange></FrequencyChanges></Clock>\n",10/28/14 11:54,75.001,Bodo,right,1430061016,10/28/14,11:54:38,6:54:38 PM,female,78,animal,close,FILLER,,5,,,,,,,16,The lion is sleeping during lunchtime,34,other,409,892129,1,5,5,1201,894881,,,,3,1,18,1532,893665,,,,,,,MainProcedure,MainExperimentSecond,sensible,,,,The lion is sleeping during lunchtime,,filler_sensible,marcus_A,1,54229,19,"<?xml version=""1.0""?>\n<Clock xmlns:dt=""urn:schemas-microsoft-com:datatypes""><Description dt:dt=""string"">E-Prime Primary Realtime Clock</Description><StartTime><Timestamp dt:dt=""int"">0</Timestamp><DateUtc dt:dt=""string"">2014-10-28T18:54:38Z</DateUtc></StartTime><FrequencyChanges><FrequencyChange><Frequency dt:dt=""r8"">3192090000</Frequency><Timestamp dt:dt=""r8"">3.0420831897925E+15</Timestamp><Current dt:dt=""r8"">0</Current><DateUtc dt:dt=""string"">2014-10-28T18:54:38Z</DateUtc></FrequencyChange></FrequencyChanges></Clock>\n",10/28/14 11:54,75.001,Bodo,right,1430061016,10/28/14,11:54:38,6:54:38 PM,female,79,inanimate,far,FILLER,,9,,,,,,35,,The camera is turning of the shrub,71,other,593,896993,1,9,9,506,899172,,,,4,1,19,1657,898657,,,,,,,MainProcedure,MainExperimentSecond,nonsense,,,,The camera is turning of the shrub,,filler_nonsense,marcus_A,1,54229,19,"<?xml version=""1.0""?>\n<Clock xmlns:dt=""urn:schemas-microsoft-com:datatypes""><Description dt:dt=""string"">E-Prime Primary Realtime Clock</Description><StartTime><Timestamp dt:dt=""int"">0</Timestamp><DateUtc dt:dt=""string"">2014-10-28T18:54:38Z</DateUtc></StartTime><FrequencyChanges><FrequencyChange><Frequency dt:dt=""r8"">3192090000</Frequency><Timestamp dt:dt=""r8"">3.0420831897925E+15</Timestamp><Current dt:dt=""r8"">0</Current><DateUtc dt:dt=""string"">2014-10-28T18:54:38Z</DateUtc></FrequencyChange></FrequencyChanges></Clock>\n",10/28/14 11:54,75.001,Bodo,right,1430061016,10/28/14,11:54:38,6:54:38 PM,female,80,human,close,SLOW,,5,2,,,,The runner is sprinting across the track,,,,2,across,345,901025,1,5,5,505,903105,,,,1,1,20,1567,902593,,,,,,,MainProcedure,MainExperimentSecond,sensible,,,,The runner is limping across the track,The runner is limping across the track,primary,limp/sprintmarcus_A,1,54229,19,"<?xml version=""1.0""?>\n<Clock xmlns:dt=""urn:schemas-microsoft-com:datatypes""><Description dt:dt=""string"">E-Prime Primary Realtime Clock</Description><StartTime><Timestamp dt:dt=""int"">0</Timestamp><DateUtc dt:dt=""string"">2014-10-28T18:54:38Z</DateUtc></StartTime><FrequencyChanges><FrequencyChange><Frequency dt:dt=""r8"">3192090000</Frequency><Timestamp dt:dt=""r8"">3.0420831897925E+15</Timestamp><Current dt:dt=""r8"">0</Current><DateUtc dt:dt=""string"">2014-10-28T18:54:38Z</DateUtc></FrequencyChange></FrequencyChanges></Clock>\n",10/28/14 11:54,75.001,Bodo,right,1430061016,10/28/14,11:54:38,6:54:38 PM,female,81,human,close,FAST,,5,16,,,,The runner is bolting across the finish line,,,,16,across,412,905025,1,5,5,631,907457,,,,2,1,21,1791,906817,,,,,,,MainProcedure,MainExperimentSecond,sensible,,,,The runner is bolting across the finish line,The runner is prancing across the finish line,primary,prance/boltmarcus_A,1,54229,19,"<?xml version=""1.0""?>\n<Clock xmlns:dt=""urn:schemas-microsoft-com:datatypes""><Description dt:dt=""string"">E-Prime Primary Realtime Clock</Description><StartTime><Timestamp dt:dt=""int"">0</Timestamp><DateUtc dt:dt=""string"">2014-10-28T18:54:38Z</DateUtc></StartTime><FrequencyChanges><FrequencyChange><Frequency dt:dt=""r8"">3192090000</Frequency><Timestamp dt:dt=""r8"">3.0420831897925E+15</Timestamp><Current dt:dt=""r8"">0</Current><DateUtc dt:dt=""string"">2014-10-28T18:54:38Z</DateUtc></FrequencyChange></FrequencyChanges></Clock>\n",10/28/14 11:54,75.001,Bodo,right,1430061016,10/28/14,11:54:38,6:54:38 PM,female,82,human,close,SLOW,,5,13,,,,The robber is running across the room,,,,13,across,372,909345,1,5,5,508,911201,,,,1,1,22,1330,910689,,,,,,,MainProcedure,MainExperimentSecond,sensible,,,,The robber is tiptoing across the room,The robber is tiptoing across the room,primary,tiptoe/runmarcus_A,1,54229,19,"<?xml version=""1.0""?>\n<Clock xmlns:dt=""urn:schemas-microsoft-com:datatypes""><Description dt:dt=""string"">E-Prime Primary Realtime Clock</Description><StartTime><Timestamp dt:dt=""int"">0</Timestamp><DateUtc dt:dt=""string"">2014-10-28T18:54:38Z</DateUtc></StartTime><FrequencyChanges><FrequencyChange><Frequency dt:dt=""r8"">3192090000</Frequency><Timestamp dt:dt=""r8"">3.0420831897925E+15</Timestamp><Current dt:dt=""r8"">0</Current><DateUtc dt:dt=""string"">2014-10-28T18:54:38Z</DateUtc></FrequencyChange></FrequencyChanges></Clock>\n",10/28/14 11:54,75.001,Bodo,right,1430061016,10/28/14,11:54:38,6:54:38 PM,female,83,human,close,FAST,,5,1,,,,The athlete is sprinting across the field,,,,1,across,498,913217,1,5,5,506,914945,,,,2,1,23,1207,914433,,,,,,,MainProcedure,MainExperimentSecond,sensible,,,,The athlete is sprinting across the field,The athlete is limping across the field,primary,limp/sprintmarcus_A,1,54229,19,"<?xml version=""1.0""?>\n<Clock xmlns:dt=""urn:schemas-microsoft-com:datatypes""><Description dt:dt=""string"">E-Prime Primary Realtime Clock</Description><StartTime><Timestamp dt:dt=""int"">0</Timestamp><DateUtc dt:dt=""string"">2014-10-28T18:54:38Z</DateUtc></StartTime><FrequencyChanges><FrequencyChange><Frequency dt:dt=""r8"">3192090000</Frequency><Timestamp dt:dt=""r8"">3.0420831897925E+15</Timestamp><Current dt:dt=""r8"">0</Current><DateUtc dt:dt=""string"">2014-10-28T18:54:38Z</DateUtc></FrequencyChange></FrequencyChanges></Clock>\n",10/28/14 11:54,75.001,Bodo,right,1430061016,10/28/14,11:54:38,6:54:38 PM,female,84,animal,far,FILLER,,9,,,,,,19,,The bug is planning over the sale,55,other,348,916801,1,9,9,479,918465,,,,4,1,24,1172,917985,,,,,,,MainProcedure,MainExperimentSecond,nonsense,,,,The bug is planning over the sale,,filler_nonsense,marcus_A,1,54229,19,"<?xml version=""1.0""?>\n<Clock xmlns:dt=""urn:schemas-microsoft-com:datatypes""><Description dt:dt=""string"">E-Prime Primary Realtime Clock</Description><StartTime><Timestamp dt:dt=""int"">0</Timestamp><DateUtc dt:dt=""string"">2014-10-28T18:54:38Z</DateUtc></StartTime><FrequencyChanges><FrequencyChange><Frequency dt:dt=""r8"">3192090000</Frequency><Timestamp dt:dt=""r8"">3.0420831897925E+15</Timestamp><Current dt:dt=""r8"">0</Current><DateUtc dt:dt=""string"">2014-10-28T18:54:38Z</DateUtc></FrequencyChange></FrequencyChanges></Clock>\n",10/28/14 11:54,75.001,Bodo,right,1430061016,10/28/14,11:54:38,6:54:38 PM,female,85,animal,far,FILLER,,9,,,,,,23,,The frog is yelling over the laces,59,other,412,920385,1,9,9,628,922241,,,,4,1,25,1215,921601,,,,,,,MainProcedure,MainExperimentSecond,nonsense,,,,The frog is yelling over the laces,,filler_nonsense,marcus_A,1,54229,19,"<?xml version=""1.0""?>\n<Clock xmlns:dt=""urn:schemas-microsoft-com:datatypes""><Description dt:dt=""string"">E-Prime Primary Realtime Clock</Description><StartTime><Timestamp dt:dt=""int"">0</Timestamp><DateUtc dt:dt=""string"">2014-10-28T18:54:38Z</DateUtc></StartTime><FrequencyChanges><FrequencyChange><Frequency dt:dt=""r8"">3192090000</Frequency><Timestamp dt:dt=""r8"">3.0420831897925E+15</Timestamp><Current dt:dt=""r8"">0</Current><DateUtc dt:dt=""string"">2014-10-28T18:54:38Z</DateUtc></FrequencyChange></FrequencyChanges></Clock>\n",10/28/14 11:54,75.001,Bodo,right,1430061016,10/28/14,11:54:38,6:54:38 PM,female,86,inanimate,far,FILLER,,9,,,,,,30,,The button is slurping across the zipper,66,across,273,924032,1,9,9,475,925888,,,,4,1,26,1369,925408,,,,,,,MainProcedure,MainExperimentSecond,nonsense,,,,The button is slurping across the zipper,,filler_nonsense,marcus_A,1,54229,19,"<?xml version=""1.0""?>\n<Clock xmlns:dt=""urn:schemas-microsoft-com:datatypes""><Description dt:dt=""string"">E-Prime Primary Realtime Clock</Description><StartTime><Timestamp dt:dt=""int"">0</Timestamp><DateUtc dt:dt=""string"">2014-10-28T18:54:38Z</DateUtc></StartTime><FrequencyChanges><FrequencyChange><Frequency dt:dt=""r8"">3192090000</Frequency><Timestamp dt:dt=""r8"">3.0420831897925E+15</Timestamp><Current dt:dt=""r8"">0</Current><DateUtc dt:dt=""string"">2014-10-28T18:54:38Z</DateUtc></FrequencyChange></FrequencyChanges></Clock>\n",10/28/14 11:54,75.001,Bodo,right,1430061016,10/28/14,11:54:38,6:54:38 PM,female,87,inanimate,far,FILLER,,9,,,,,,29,,The door is flying across the bandana,65,across,345,927744,1,9,9,446,929152,,,,4,1,27,958,928704,,,,,,,MainProcedure,MainExperimentSecond,nonsense,,,,The door is flying across the bandana,,filler_nonsense,marcus_A,1,54229,19,"<?xml version=""1.0""?>\n<Clock xmlns:dt=""urn:schemas-microsoft-com:datatypes""><Description dt:dt=""string"">E-Prime Primary Realtime Clock</Description><StartTime><Timestamp dt:dt=""int"">0</Timestamp><DateUtc dt:dt=""string"">2014-10-28T18:54:38Z</DateUtc></StartTime><FrequencyChanges><FrequencyChange><Frequency dt:dt=""r8"">3192090000</Frequency><Timestamp dt:dt=""r8"">3.0420831897925E+15</Timestamp><Current dt:dt=""r8"">0</Current><DateUtc dt:dt=""string"">2014-10-28T18:54:38Z</DateUtc></FrequencyChange></FrequencyChanges></Clock>\n",10/28/14 11:54,75.001,Bodo,right,1430061016,10/28/14,11:54:38,6:54:38 PM,female,88,human,far,FILLER,,9,,,,,,18,,The friend is signing down the lamp,54,other,310,930976,1,9,9,691,933024,,,,4,1,28,1334,932320,,,,,,,MainProcedure,MainExperimentSecond,nonsense,,,,The friend is signing down the lamp,,filler_nonsense,marcus_A,1,54229,19,"<?xml version=""1.0""?>\n<Clock xmlns:dt=""urn:schemas-microsoft-com:datatypes""><Description dt:dt=""string"">E-Prime Primary Realtime Clock</Description><StartTime><Timestamp dt:dt=""int"">0</Timestamp><DateUtc dt:dt=""string"">2014-10-28T18:54:38Z</DateUtc></StartTime><FrequencyChanges><FrequencyChange><Frequency dt:dt=""r8"">3192090000</Frequency><Timestamp dt:dt=""r8"">3.0420831897925E+15</Timestamp><Current dt:dt=""r8"">0</Current><DateUtc dt:dt=""string"">2014-10-28T18:54:38Z</DateUtc></FrequencyChange></FrequencyChanges></Clock>\n",10/28/14 11:54,75.001,Bodo,right,1430061016,10/28/14,11:54:38,6:54:38 PM,female,89,human,far,FILLER,,9,,,,,,15,,The nanny is widening down the toe,51,other,284,934816,1,9,9,470,936576,,,,4,1,29,1270,936096,,,,,,,MainProcedure,MainExperimentSecond,nonsense,,,,The nanny is widening down the toe,,filler_nonsense,marcus_A,1,54229,19,"<?xml version=""1.0""?>\n<Clock xmlns:dt=""urn:schemas-microsoft-com:datatypes""><Description dt:dt=""string"">E-Prime Primary Realtime Clock</Description><StartTime><Timestamp dt:dt=""int"">0</Timestamp><DateUtc dt:dt=""string"">2014-10-28T18:54:38Z</DateUtc></StartTime><FrequencyChanges><FrequencyChange><Frequency dt:dt=""r8"">3192090000</Frequency><Timestamp dt:dt=""r8"">3.0420831897925E+15</Timestamp><Current dt:dt=""r8"">0</Current><DateUtc dt:dt=""string"">2014-10-28T18:54:38Z</DateUtc></FrequencyChange></FrequencyChanges></Clock>\n",10/28/14 11:54,75.001,Bodo,right,1430061016,10/28/14,11:54:38,6:54:38 PM,female,90,inanimate,far,FILLER,,9,,,,,,28,,The block is piling across the tires,64,across,340,938432,1,9,9,697,940576,,,,4,1,30,1433,939872,,,,,,,MainProcedure,MainExperimentSecond,nonsense,,,,The block is piling across the tires,,filler_nonsense,marcus_A,1,54229,19,"<?xml version=""1.0""?>\n<Clock xmlns:dt=""urn:schemas-microsoft-com:datatypes""><Description dt:dt=""string"">E-Prime Primary Realtime Clock</Description><StartTime><Timestamp dt:dt=""int"">0</Timestamp><DateUtc dt:dt=""string"">2014-10-28T18:54:38Z</DateUtc></StartTime><FrequencyChanges><FrequencyChange><Frequency dt:dt=""r8"">3192090000</Frequency><Timestamp dt:dt=""r8"">3.0420831897925E+15</Timestamp><Current dt:dt=""r8"">0</Current><DateUtc dt:dt=""string"">2014-10-28T18:54:38Z</DateUtc></FrequencyChange></FrequencyChanges></Clock>\n",10/28/14 11:54,75.001,Bodo,right,1430061016,10/28/14,11:54:38,6:54:38 PM,female,91,human,close,FAST,,5,15,,,,The quarterback is bolting across the goal line,,,,15,across,436,942528,1,5,5,596,944608,,,,2,1,31,1468,944000,,,,,,,MainProcedure,MainExperimentSecond,sensible,,,,The quarterback is bolting across the goal line,The quarterback is prancing across the goal line,primary,prance/boltmarcus_A,1,54229,19,"<?xml version=""1.0""?>\n<Clock xmlns:dt=""urn:schemas-microsoft-com:datatypes""><Description dt:dt=""string"">E-Prime Primary Realtime Clock</Description><StartTime><Timestamp dt:dt=""int"">0</Timestamp><DateUtc dt:dt=""string"">2014-10-28T18:54:38Z</DateUtc></StartTime><FrequencyChanges><FrequencyChange><Frequency dt:dt=""r8"">3192090000</Frequency><Timestamp dt:dt=""r8"">3.0420831897925E+15</Timestamp><Current dt:dt=""r8"">0</Current><DateUtc dt:dt=""string"">2014-10-28T18:54:38Z</DateUtc></FrequencyChange></FrequencyChanges></Clock>\n",10/28/14 11:54,75.001,Bodo,right,1430061016,10/28/14,11:54:38,6:54:38 PM,female,92,human,close,SLOW,,5,11,,,,The soldier is speeding across the meadow,,,,11,across,313,946432,1,5,5,598,948864,,,,1,1,32,1817,948256,,,,,,,MainProcedure,MainExperimentSecond,sensible,,,,The soldier is creeping across the meadow,The soldier is creeping across the meadow,primary,creep/speedmarcus_A,1,54229,19,"<?xml version=""1.0""?>\n<Clock xmlns:dt=""urn:schemas-microsoft-com:datatypes""><Description dt:dt=""string"">E-Prime Primary Realtime Clock</Description><StartTime><Timestamp dt:dt=""int"">0</Timestamp><DateUtc dt:dt=""string"">2014-10-28T18:54:38Z</DateUtc></StartTime><FrequencyChanges><FrequencyChange><Frequency dt:dt=""r8"">3192090000</Frequency><Timestamp dt:dt=""r8"">3.0420831897925E+15</Timestamp><Current dt:dt=""r8"">0</Current><DateUtc dt:dt=""string"">2014-10-28T18:54:38Z</DateUtc></FrequencyChange></FrequencyChanges></Clock>\n",10/28/14 11:54,75.001,Bodo,right,1430061016,10/28/14,11:54:38,6:54:38 PM,female,93,human,far,FILLER,,9,,,,,,11,,The tenant is putting across the wait,47,across,541,950913,1,9,9,412,953184,,,,4,1,33,1849,952768,,,,,,,MainProcedure,MainExperimentSecond,nonsense,,,,The tenant is putting across the wait,,filler_nonsense,marcus_A,1,54229,19,"<?xml version=""1.0""?>\n<Clock xmlns:dt=""urn:schemas-microsoft-com:datatypes""><Description dt:dt=""string"">E-Prime Primary Realtime Clock</Description><StartTime><Timestamp dt:dt=""int"">0</Timestamp><DateUtc dt:dt=""string"">2014-10-28T18:54:38Z</DateUtc></StartTime><FrequencyChanges><FrequencyChange><Frequency dt:dt=""r8"">3192090000</Frequency><Timestamp dt:dt=""r8"">3.0420831897925E+15</Timestamp><Current dt:dt=""r8"">0</Current><DateUtc dt:dt=""string"">2014-10-28T18:54:38Z</DateUtc></FrequencyChange></FrequencyChanges></Clock>\n",10/28/14 11:54,75.001,Bodo,right,1430061016,10/28/14,11:54:38,6:54:38 PM,female,94,inanimate,far,FILLER,,9,,,,,,31,,The smoke is rumbling of the turnip,67,other,348,955040,1,9,9,473,956512,,,,4,1,34,980,956032,,,,,,,MainProcedure,MainExperimentSecond,nonsense,,,,The smoke is rumbling of the turnip,,filler_nonsense,marcus_A,1,54229,19,"<?xml version=""1.0""?>\n<Clock xmlns:dt=""urn:schemas-microsoft-com:datatypes""><Description dt:dt=""string"">E-Prime Primary Realtime Clock</Description><StartTime><Timestamp dt:dt=""int"">0</Timestamp><DateUtc dt:dt=""string"">2014-10-28T18:54:38Z</DateUtc></StartTime><FrequencyChanges><FrequencyChange><Frequency dt:dt=""r8"">3192090000</Frequency><Timestamp dt:dt=""r8"">3.0420831897925E+15</Timestamp><Current dt:dt=""r8"">0</Current><DateUtc dt:dt=""string"">2014-10-28T18:54:38Z</DateUtc></FrequencyChange></FrequencyChanges></Clock>\n",10/28/14 11:54,75.001,Bodo,right,1430061016,10/28/14,11:54:38,6:54:38 PM,female,95,human,far,FILLER,,9,,,,,,5,,The infant is dropping across the gum,41,across,374,958399,1,9,9,470,960255,,,,4,1,35,1363,959775,,,,,,,MainProcedure,MainExperimentSecond,nonsense,,,,The infant is dropping across the gum,,filler_nonsense,marcus_A,1,54229,19,"<?xml version=""1.0""?>\n<Clock xmlns:dt=""urn:schemas-microsoft-com:datatypes""><Description dt:dt=""string"">E-Prime Primary Realtime Clock</Description><StartTime><Timestamp dt:dt=""int"">0</Timestamp><DateUtc dt:dt=""string"">2014-10-28T18:54:38Z</DateUtc></StartTime><FrequencyChanges><FrequencyChange><Frequency dt:dt=""r8"">3192090000</Frequency><Timestamp dt:dt=""r8"">3.0420831897925E+15</Timestamp><Current dt:dt=""r8"">0</Current><DateUtc dt:dt=""string"">2014-10-28T18:54:38Z</DateUtc></FrequencyChange></FrequencyChanges></Clock>\n",10/28/14 11:54,75.001,Bodo,right,1430061016,10/28/14,11:54:38,6:54:38 PM,female,96,inanimate,far,FILLER,,9,,,,,,26,,The ball is tickling across the monkey,62,across,371,962143,1,9,9,536,963935,,,,4,1,36,1246,963391,,,,,,,MainProcedure,MainExperimentSecond,nonsense,,,,The ball is tickling across the monkey,,filler_nonsense,marcus_A,11,51352,19,"<?xml version=""1.0""?>\n<Clock xmlns:dt=""urn:schemas-microsoft-com:datatypes""><Description dt:dt=""string"">E-Prime Primary Realtime Clock</Description><StartTime><Timestamp dt:dt=""int"">0</Timestamp><DateUtc dt:dt=""string"">2014-10-28T21:23:55Z</DateUtc></StartTime><FrequencyChanges><FrequencyChange><Frequency dt:dt=""r8"">3192090000</Frequency><Timestamp dt:dt=""r8"">3.0706750563189E+15</Timestamp><Current dt:dt=""r8"">0</Current><DateUtc dt:dt=""string"">2014-10-28T21:23:55Z</DateUtc></FrequencyChange></FrequencyChanges></Clock>\n",10/28/14 14:23,75.001,Neekole,right,1680503024,10/28/14,14:23:55,9:23:55 PM,female,1,,,,5,,,0,6843,96528,,,,,,,,,,,,,,,,,,,,,,9,1,1,,,,PracticeProcedure,PracticeList,nonsense,The table is stretching by the tape,115,89680,,,practice,marcus_A,11,51352,19,"<?xml version=""1.0""?>\n<Clock xmlns:dt=""urn:schemas-microsoft-com:datatypes""><Description dt:dt=""string"">E-Prime Primary Realtime Clock</Description><StartTime><Timestamp dt:dt=""int"">0</Timestamp><DateUtc dt:dt=""string"">2014-10-28T21:23:55Z</DateUtc></StartTime><FrequencyChanges><FrequencyChange><Frequency dt:dt=""r8"">3192090000</Frequency><Timestamp dt:dt=""r8"">3.0706750563189E+15</Timestamp><Current dt:dt=""r8"">0</Current><DateUtc dt:dt=""string"">2014-10-28T21:23:55Z</DateUtc></FrequencyChange></FrequencyChanges></Clock>\n",10/28/14 14:23,75.001,Neekole,right,1680503024,10/28/14,14:23:55,9:23:55 PM,female,2,,,,9,,,1,691,102096,,,,,,,,,,,,,,,,,,,,,,1,1,2,,,,PracticeProcedure,PracticeList,sense,The phone is ringing during class,1721,101392,,,practice,marcus_A,11,51352,19,"<?xml version=""1.0""?>\n<Clock xmlns:dt=""urn:schemas-microsoft-com:datatypes""><Description dt:dt=""string"">E-Prime Primary Realtime Clock</Description><StartTime><Timestamp dt:dt=""int"">0</Timestamp><DateUtc dt:dt=""string"">2014-10-28T21:23:55Z</DateUtc></StartTime><FrequencyChanges><FrequencyChange><Frequency dt:dt=""r8"">3192090000</Frequency><Timestamp dt:dt=""r8"">3.0706750563189E+15</Timestamp><Current dt:dt=""r8"">0</Current><DateUtc dt:dt=""string"">2014-10-28T21:23:55Z</DateUtc></FrequencyChange></FrequencyChanges></Clock>\n",10/28/14 14:23,75.001,Neekole,right,1680503024,10/28/14,14:23:55,9:23:55 PM,female,3,,,,9,,,0,441,107472,,,,,,,,,,,,,,,,,,,,,,6,1,3,,,,PracticeProcedure,PracticeList,sense,The trees are blowing in the wind,1886,107024,,,practice,marcus_A,11,51352,19,"<?xml version=""1.0""?>\n<Clock xmlns:dt=""urn:schemas-microsoft-com:datatypes""><Description dt:dt=""string"">E-Prime Primary Realtime Clock</Description><StartTime><Timestamp dt:dt=""int"">0</Timestamp><DateUtc dt:dt=""string"">2014-10-28T21:23:55Z</DateUtc></StartTime><FrequencyChanges><FrequencyChange><Frequency dt:dt=""r8"">3192090000</Frequency><Timestamp dt:dt=""r8"">3.0706750563189E+15</Timestamp><Current dt:dt=""r8"">0</Current><DateUtc dt:dt=""string"">2014-10-28T21:23:55Z</DateUtc></FrequencyChange></FrequencyChanges></Clock>\n",10/28/14 14:23,75.001,Neekole,right,1680503024,10/28/14,14:23:55,9:23:55 PM,female,4,,,,5,,,1,542,116400,,,,,,,,,,,,,,,,,,,,,,7,1,4,,,,PracticeProcedure,PracticeList,nonsense,The sidewalk is coloring to the grass,1304,115855,,,practice,marcus_A,11,51352,19,"<?xml version=""1.0""?>\n<Clock xmlns:dt=""urn:schemas-microsoft-com:datatypes""><Description dt:dt=""string"">E-Prime Primary Realtime Clock</Description><StartTime><Timestamp dt:dt=""int"">0</Timestamp><DateUtc dt:dt=""string"">2014-10-28T21:23:55Z</DateUtc></StartTime><FrequencyChanges><FrequencyChange><Frequency dt:dt=""r8"">3192090000</Frequency><Timestamp dt:dt=""r8"">3.0706750563189E+15</Timestamp><Current dt:dt=""r8"">0</Current><DateUtc dt:dt=""string"">2014-10-28T21:23:55Z</DateUtc></FrequencyChange></FrequencyChanges></Clock>\n",10/28/14 14:23,75.001,Neekole,right,1680503024,10/28/14,14:23:55,9:23:55 PM,female,5,,,,5,,,1,787,124911,,,,,,,,,,,,,,,,,,,,,,10,1,5,,,,PracticeProcedure,PracticeList,nonsense,The girl is glimmering off the flowers,3867,124111,,,practice,marcus_A,11,51352,19,"<?xml version=""1.0""?>\n<Clock xmlns:dt=""urn:schemas-microsoft-com:datatypes""><Description dt:dt=""string"">E-Prime Primary Realtime Clock</Description><StartTime><Timestamp dt:dt=""int"">0</Timestamp><DateUtc dt:dt=""string"">2014-10-28T21:23:55Z</DateUtc></StartTime><FrequencyChanges><FrequencyChange><Frequency dt:dt=""r8"">3192090000</Frequency><Timestamp dt:dt=""r8"">3.0706750563189E+15</Timestamp><Current dt:dt=""r8"">0</Current><DateUtc dt:dt=""string"">2014-10-28T21:23:55Z</DateUtc></FrequencyChange></FrequencyChanges></Clock>\n",10/28/14 14:23,75.001,Neekole,right,1680503024,10/28/14,14:23:55,9:23:55 PM,female,6,,,,9,,,1,504,130735,,,,,,,,,,,,,,,,,,,,,,2,1,6,,,,PracticeProcedure,PracticeList,sense,The water is boiling in the pot,1592,130223,,,practice,marcus_A,11,51352,19,"<?xml version=""1.0""?>\n<Clock xmlns:dt=""urn:schemas-microsoft-com:datatypes""><Description dt:dt=""string"">E-Prime Primary Realtime Clock</Description><StartTime><Timestamp dt:dt=""int"">0</Timestamp><DateUtc dt:dt=""string"">2014-10-28T21:23:55Z</DateUtc></StartTime><FrequencyChanges><FrequencyChange><Frequency dt:dt=""r8"">3192090000</Frequency><Timestamp dt:dt=""r8"">3.0706750563189E+15</Timestamp><Current dt:dt=""r8"">0</Current><DateUtc dt:dt=""string"">2014-10-28T21:23:55Z</DateUtc></FrequencyChange></FrequencyChanges></Clock>\n",10/28/14 14:23,75.001,Neekole,right,1680503024,10/28/14,14:23:55,9:23:55 PM,female,7,,,,9,,,1,563,137007,,,,,,,,,,,,,,,,,,,,,,3,1,7,,,,PracticeProcedure,PracticeList,sense,The cow is grazing in the field,1880,136431,,,practice,marcus_A,11,51352,19,"<?xml version=""1.0""?>\n<Clock xmlns:dt=""urn:schemas-microsoft-com:datatypes""><Description dt:dt=""string"">E-Prime Primary Realtime Clock</Description><StartTime><Timestamp dt:dt=""int"">0</Timestamp><DateUtc dt:dt=""string"">2014-10-28T21:23:55Z</DateUtc></StartTime><FrequencyChanges><FrequencyChange><Frequency dt:dt=""r8"">3192090000</Frequency><Timestamp dt:dt=""r8"">3.0706750563189E+15</Timestamp><Current dt:dt=""r8"">0</Current><DateUtc dt:dt=""string"">2014-10-28T21:23:55Z</DateUtc></FrequencyChange></FrequencyChanges></Clock>\n",10/28/14 14:23,75.001,Neekole,right,1680503024,10/28/14,14:23:55,9:23:55 PM,female,8,,,,9,,,1,507,142671,,,,,,,,,,,,,,,,,,,,,,4,1,8,,,,PracticeProcedure,PracticeList,sense,The arrow is pointing to the exit,1755,142159,,,practice,marcus_A,11,51352,19,"<?xml version=""1.0""?>\n<Clock xmlns:dt=""urn:schemas-microsoft-com:datatypes""><Description dt:dt=""string"">E-Prime Primary Realtime Clock</Description><StartTime><Timestamp dt:dt=""int"">0</Timestamp><DateUtc dt:dt=""string"">2014-10-28T21:23:55Z</DateUtc></StartTime><FrequencyChanges><FrequencyChange><Frequency dt:dt=""r8"">3192090000</Frequency><Timestamp dt:dt=""r8"">3.0706750563189E+15</Timestamp><Current dt:dt=""r8"">0</Current><DateUtc dt:dt=""string"">2014-10-28T21:23:55Z</DateUtc></FrequencyChange></FrequencyChanges></Clock>\n",10/28/14 14:23,75.001,Neekole,right,1680503024,10/28/14,14:23:55,9:23:55 PM,female,9,,,,5,,,1,371,152175,,,,,,,,,,,,,,,,,,,,,,8,1,9,,,,PracticeProcedure,PracticeList,nonsense,The floor concrete in the building,5333,151790,,,practice,marcus_A,11,51352,19,"<?xml version=""1.0""?>\n<Clock xmlns:dt=""urn:schemas-microsoft-com:datatypes""><Description dt:dt=""string"">E-Prime Primary Realtime Clock</Description><StartTime><Timestamp dt:dt=""int"">0</Timestamp><DateUtc dt:dt=""string"">2014-10-28T21:23:55Z</DateUtc></StartTime><FrequencyChanges><FrequencyChange><Frequency dt:dt=""r8"">3192090000</Frequency><Timestamp dt:dt=""r8"">3.0706750563189E+15</Timestamp><Current dt:dt=""r8"">0</Current><DateUtc dt:dt=""string"">2014-10-28T21:23:55Z</DateUtc></FrequencyChange></FrequencyChanges></Clock>\n",10/28/14 14:23,75.001,Neekole,right,1680503024,10/28/14,14:23:55,9:23:55 PM,female,10,,,,9,,,1,466,158990,,,,,,,,,,,,,,,,,,,,,,5,1,10,,,,PracticeProcedure,PracticeList,sense,The cup is sitting on the desk,2866,158510,,,practice,marcus_A,11,51352,19,"<?xml version=""1.0""?>\n<Clock xmlns:dt=""urn:schemas-microsoft-com:datatypes""><Description dt:dt=""string"">E-Prime Primary Realtime Clock</Description><StartTime><Timestamp dt:dt=""int"">0</Timestamp><DateUtc dt:dt=""string"">2014-10-28T21:23:55Z</DateUtc></StartTime><FrequencyChanges><FrequencyChange><Frequency dt:dt=""r8"">3192090000</Frequency><Timestamp dt:dt=""r8"">3.0706750563189E+15</Timestamp><Current dt:dt=""r8"">0</Current><DateUtc dt:dt=""string"">2014-10-28T21:23:55Z</DateUtc></FrequencyChange></FrequencyChanges></Clock>\n",10/28/14 14:23,75.001,Neekole,right,1680503024,10/28/14,14:23:55,9:23:55 PM,female,11,,,,5,,,1,442,164206,,,,,,,,,,,,,,,,,,,,,,11,1,11,,,,PracticeProcedure,PracticeList,nonsense,The mountain is swimming under the bridge,1368,163758,,,practice,marcus_A,11,51352,19,"<?xml version=""1.0""?>\n<Clock xmlns:dt=""urn:schemas-microsoft-com:datatypes""><Description dt:dt=""string"">E-Prime Primary Realtime Clock</Description><StartTime><Timestamp dt:dt=""int"">0</Timestamp><DateUtc dt:dt=""string"">2014-10-28T21:23:55Z</DateUtc></StartTime><FrequencyChanges><FrequencyChange><Frequency dt:dt=""r8"">3192090000</Frequency><Timestamp dt:dt=""r8"">3.0706750563189E+15</Timestamp><Current dt:dt=""r8"">0</Current><DateUtc dt:dt=""string"">2014-10-28T21:23:55Z</DateUtc></FrequencyChange></FrequencyChanges></Clock>\n",10/28/14 14:23,75.001,Neekole,right,1680503024,10/28/14,14:23:55,9:23:55 PM,female,12,,,,5,,,0,626,174030,,,,,,,,,,,,,,,,,,,,,,12,1,12,,,,PracticeProcedure,PracticeList,nonsense,The hawk is measuring under the highway,5533,173390,,,practice,marcus_A,11,51352,19,"<?xml version=""1.0""?>\n<Clock xmlns:dt=""urn:schemas-microsoft-com:datatypes""><Description dt:dt=""string"">E-Prime Primary Realtime Clock</Description><StartTime><Timestamp dt:dt=""int"">0</Timestamp><DateUtc dt:dt=""string"">2014-10-28T21:23:55Z</DateUtc></StartTime><FrequencyChanges><FrequencyChange><Frequency dt:dt=""r8"">3192090000</Frequency><Timestamp dt:dt=""r8"">3.0706750563189E+15</Timestamp><Current dt:dt=""r8"">0</Current><DateUtc dt:dt=""string"">2014-10-28T21:23:55Z</DateUtc></FrequencyChange></FrequencyChanges></Clock>\n",10/28/14 14:23,75.001,Neekole,right,1680503024,10/28/14,14:23:55,9:23:55 PM,female,13,human,close,FILLER,,5,,,,,,15,,The nanny is widening down the toe,51,other,1426,196589,1,5,5,540,202957,4,1,1,,,,5823,202413,,,,,,,MainProcedure,MainExperimentFirst,nonsense,,,,The nanny is widening down the toe,,filler_nonsense,marcus_A,11,51352,19,"<?xml version=""1.0""?>\n<Clock xmlns:dt=""urn:schemas-microsoft-com:datatypes""><Description dt:dt=""string"">E-Prime Primary Realtime Clock</Description><StartTime><Timestamp dt:dt=""int"">0</Timestamp><DateUtc dt:dt=""string"">2014-10-28T21:23:55Z</DateUtc></StartTime><FrequencyChanges><FrequencyChange><Frequency dt:dt=""r8"">3192090000</Frequency><Timestamp dt:dt=""r8"">3.0706750563189E+15</Timestamp><Current dt:dt=""r8"">0</Current><DateUtc dt:dt=""string"">2014-10-28T21:23:55Z</DateUtc></FrequencyChange></FrequencyChanges></Clock>\n",10/28/14 14:23,75.001,Neekole,right,1680503024,10/28/14,14:23:55,9:23:55 PM,female,14,inanimate,far,FILLER,,9,,,,,,,7,The book is on the table,25,other,1271,205741,1,9,9,412,207149,3,1,2,,,,983,206733,,,,,,,MainProcedure,MainExperimentFirst,sensible,,,,The book is on the table,,filler_sensible,marcus_A,11,51352,19,"<?xml version=""1.0""?>\n<Clock xmlns:dt=""urn:schemas-microsoft-com:datatypes""><Description dt:dt=""string"">E-Prime Primary Realtime Clock</Description><StartTime><Timestamp dt:dt=""int"">0</Timestamp><DateUtc dt:dt=""string"">2014-10-28T21:23:55Z</DateUtc></StartTime><FrequencyChanges><FrequencyChange><Frequency dt:dt=""r8"">3192090000</Frequency><Timestamp dt:dt=""r8"">3.0706750563189E+15</Timestamp><Current dt:dt=""r8"">0</Current><DateUtc dt:dt=""string"">2014-10-28T21:23:55Z</DateUtc></FrequencyChange></FrequencyChanges></Clock>\n",10/28/14 14:23,75.001,Neekole,right,1680503024,10/28/14,14:23:55,9:23:55 PM,female,15,inanimate,close,FILLER,,5,,,,,,31,,The smoke is rumbling of the turnip,67,other,1020,209677,0,5,9,538,212941,4,1,3,,,,2714,212397,,,,,,,MainProcedure,MainExperimentFirst,nonsense,,,,The smoke is rumbling of the turnip,,filler_nonsense,marcus_A,11,51352,19,"<?xml version=""1.0""?>\n<Clock xmlns:dt=""urn:schemas-microsoft-com:datatypes""><Description dt:dt=""string"">E-Prime Primary Realtime Clock</Description><StartTime><Timestamp dt:dt=""int"">0</Timestamp><DateUtc dt:dt=""string"">2014-10-28T21:23:55Z</DateUtc></StartTime><FrequencyChanges><FrequencyChange><Frequency dt:dt=""r8"">3192090000</Frequency><Timestamp dt:dt=""r8"">3.0706750563189E+15</Timestamp><Current dt:dt=""r8"">0</Current><DateUtc dt:dt=""string"">2014-10-28T21:23:55Z</DateUtc></FrequencyChange></FrequencyChanges></Clock>\n",10/28/14 14:23,75.001,Neekole,right,1680503024,10/28/14,14:23:55,9:23:55 PM,female,16,animal,close,FILLER,,5,,,,,,22,,The horse is emerging down the shoes,58,other,373,214829,1,5,5,503,218253,4,1,4,,,,2911,217741,,,,,,,MainProcedure,MainExperimentFirst,nonsense,,,,The horse is emerging down the shoes,,filler_nonsense,marcus_A,11,51352,19,"<?xml version=""1.0""?>\n<Clock xmlns:dt=""urn:schemas-microsoft-com:datatypes""><Description dt:dt=""string"">E-Prime Primary Realtime Clock</Description><StartTime><Timestamp dt:dt=""int"">0</Timestamp><DateUtc dt:dt=""string"">2014-10-28T21:23:55Z</DateUtc></StartTime><FrequencyChanges><FrequencyChange><Frequency dt:dt=""r8"">3192090000</Frequency><Timestamp dt:dt=""r8"">3.0706750563189E+15</Timestamp><Current dt:dt=""r8"">0</Current><DateUtc dt:dt=""string"">2014-10-28T21:23:55Z</DateUtc></FrequencyChange></FrequencyChanges></Clock>\n",10/28/14 14:23,75.001,Neekole,right,1680503024,10/28/14,14:23:55,9:23:55 PM,female,17,human,far,FAST,,9,5,,,,The man is racing across the desert,,,,5,across,410,220173,1,9,9,506,224269,2,1,5,,,,3581,223757,,,,,,,MainProcedure,MainExperimentFirst,sensible,,,,The man is racing across the desert,The man is hobbling across the desert,primary,hobble/racemarcus_A,11,51352,19,"<?xml version=""1.0""?>\n<Clock xmlns:dt=""urn:schemas-microsoft-com:datatypes""><Description dt:dt=""string"">E-Prime Primary Realtime Clock</Description><StartTime><Timestamp dt:dt=""int"">0</Timestamp><DateUtc dt:dt=""string"">2014-10-28T21:23:55Z</DateUtc></StartTime><FrequencyChanges><FrequencyChange><Frequency dt:dt=""r8"">3192090000</Frequency><Timestamp dt:dt=""r8"">3.0706750563189E+15</Timestamp><Current dt:dt=""r8"">0</Current><DateUtc dt:dt=""string"">2014-10-28T21:23:55Z</DateUtc></FrequencyChange></FrequencyChanges></Clock>\n",10/28/14 14:23,75.001,Neekole,right,1680503024,10/28/14,14:23:55,9:23:55 PM,female,18,animal,close,FILLER,,5,,,,,,21,,The rabbit is asking in the carpet,57,other,349,226125,1,5,5,628,229484,4,1,6,,,,2708,228844,,,,,,,MainProcedure,MainExperimentFirst,nonsense,,,,The rabbit is asking in the carpet,,filler_nonsense,