ExperimentName,Subject,Session,Age,Clock.Information,Clock.StartTimeOfDay,Display.RefreshRate,Group,Handedness,RandomSeed,SessionDate,SessionTime,SessionTimeUtc,Sex,Block,Animacy,ButtonDistance,Condition,CorrectPractice,CorrectResponse,CriticalStimuli,DecisionScreen.ACC,DecisionScreen.RT,DecisionScreen.RTTime,DecisionScreen2.ACC,DecisionScreen2.RT,DecisionScreen2.RTTime,FAST,FillerNonsensical,FillerSensical,FillerSentence,ItemNo,Landmark,MainCrossair.RT,MainCrossair.RTTime,MainCrossair2.RT,MainCrossair2.RTTime,MainDecision.ACC,MainDecision.CRESP,MainDecision.RESP,MainDecision.RT,MainDecision.RTTime,MainDecision2.ACC,MainDecision2.CRESP,MainDecision2.RESP,MainDecision2.RT,MainDecision2.RTTime,MainExperimentFirst,MainExperimentFirst.Cycle,MainExperimentFirst.Sample,MainExperimentSecond,MainExperimentSecond.Cycle,MainExperimentSecond.Sample,MainSentence.RT,MainSentence.RTTime,MainSentence2.RT,MainSentence2.RTTime,PracticeList,PracticeList.Cycle,PracticeList.Sample,PracticeSessionTwo,PracticeSessionTwo.Cycle,PracticeSessionTwo.Sample,Procedure,Running,Sensibility,Sentence,SentenceDisplay.RT,SentenceDisplay.RTTime,SentenceToDisplay,SLOW,Type,Verbmarcus2_A,1,55552,18,"<?xml version=""1.0""?>\n<Clock xmlns:dt=""urn:schemas-microsoft-com:datatypes""><Description dt:dt=""string"">E-Prime Primary Realtime Clock</Description><StartTime><Timestamp dt:dt=""int"">0</Timestamp><DateUtc dt:dt=""string"">2015-05-06T17:28:56Z</DateUtc></StartTime><FrequencyChanges><FrequencyChange><Frequency dt:dt=""r8"">3192070000</Frequency><Timestamp dt:dt=""r8"">4.68333411156818E+16</Timestamp><Current dt:dt=""r8"">0</Current><DateUtc dt:dt=""string"">2015-05-06T17:28:56Z</DateUtc></FrequencyChange></FrequencyChanges></Clock>\n",5/6/15 10:28,75.001,Bodo,right,436436898,5/6/15,10:28:56,5:28:56 PM,female,1,,,,9,,,1,2557,81322,,,,,,,,,,,,,,,,,,,,,,,,,,,,,,,,,,4,1,1,,,,PracticeProcedure,PracticeList,sense,The arrow is pointing to the exit,2078,78763,,,practice,marcus2_A,1,55552,18,"<?xml version=""1.0""?>\n<Clock xmlns:dt=""urn:schemas-microsoft-com:datatypes""><Description dt:dt=""string"">E-Prime Primary Realtime Clock</Description><StartTime><Timestamp dt:dt=""int"">0</Timestamp><DateUtc dt:dt=""string"">2015-05-06T17:28:56Z</DateUtc></StartTime><FrequencyChanges><FrequencyChange><Frequency dt:dt=""r8"">3192070000</Frequency><Timestamp dt:dt=""r8"">4.68333411156818E+16</Timestamp><Current dt:dt=""r8"">0</Current><DateUtc dt:dt=""string"">2015-05-06T17:28:56Z</DateUtc></FrequencyChange></FrequencyChanges></Clock>\n",5/6/15 10:28,75.001,Bodo,right,436436898,5/6/15,10:28:56,5:28:56 PM,female,2,,,,9,,,1,1107,88618,,,,,,,,,,,,,,,,,,,,,,,,,,,,,,,,,,2,1,2,,,,PracticeProcedure,PracticeList,sense,The water is boiling in the pot,1627,87498,,,practice,marcus2_A,1,55552,18,"<?xml version=""1.0""?>\n<Clock xmlns:dt=""urn:schemas-microsoft-com:datatypes""><Description dt:dt=""string"">E-Prime Primary Realtime Clock</Description><StartTime><Timestamp dt:dt=""int"">0</Timestamp><DateUtc dt:dt=""string"">2015-05-06T17:28:56Z</DateUtc></StartTime><FrequencyChanges><FrequencyChange><Frequency dt:dt=""r8"">3192070000</Frequency><Timestamp dt:dt=""r8"">4.68333411156818E+16</Timestamp><Current dt:dt=""r8"">0</Current><DateUtc dt:dt=""string"">2015-05-06T17:28:56Z</DateUtc></FrequencyChange></FrequencyChanges></Clock>\n",5/6/15 10:28,75.001,Bodo,right,436436898,5/6/15,10:28:56,5:28:56 PM,female,3,,,,9,,,1,1875,96266,,,,,,,,,,,,,,,,,,,,,,,,,,,,,,,,,,3,1,3,,,,PracticeProcedure,PracticeList,sense,The cow is grazing in the field,1587,94378,,,practice,marcus2_A,1,55552,18,"<?xml version=""1.0""?>\n<Clock xmlns:dt=""urn:schemas-microsoft-com:datatypes""><Description dt:dt=""string"">E-Prime Primary Realtime Clock</Description><StartTime><Timestamp dt:dt=""int"">0</Timestamp><DateUtc dt:dt=""string"">2015-05-06T17:28:56Z</DateUtc></StartTime><FrequencyChanges><FrequencyChange><Frequency dt:dt=""r8"">3192070000</Frequency><Timestamp dt:dt=""r8"">4.68333411156818E+16</Timestamp><Current dt:dt=""r8"">0</Current><DateUtc dt:dt=""string"">2015-05-06T17:28:56Z</DateUtc></FrequencyChange></FrequencyChanges></Clock>\n",5/6/15 10:28,75.001,Bodo,right,436436898,5/6/15,10:28:56,5:28:56 PM,female,4,,,,5,,,1,1179,103050,,,,,,,,,,,,,,,,,,,,,,,,,,,,,,,,,,9,1,4,,,,PracticeProcedure,PracticeList,nonsense,The table is stretching by the tape,1595,101866,,,practice,marcus2_A,1,55552,18,"<?xml version=""1.0""?>\n<Clock xmlns:dt=""urn:schemas-microsoft-com:datatypes""><Description dt:dt=""string"">E-Prime Primary Realtime Clock</Description><StartTime><Timestamp dt:dt=""int"">0</Timestamp><DateUtc dt:dt=""string"">2015-05-06T17:28:56Z</DateUtc></StartTime><FrequencyChanges><FrequencyChange><Frequency dt:dt=""r8"">3192070000</Frequency><Timestamp dt:dt=""r8"">4.68333411156818E+16</Timestamp><Current dt:dt=""r8"">0</Current><DateUtc dt:dt=""string"">2015-05-06T17:28:56Z</DateUtc></FrequencyChange></FrequencyChanges></Clock>\n",5/6/15 10:28,75.001,Bodo,right,436436898,5/6/15,10:28:56,5:28:56 PM,female,5,,,,9,,,1,2648,111146,,,,,,,,,,,,,,,,,,,,,,,,,,,,,,,,,,1,1,5,,,,PracticeProcedure,PracticeList,sense,The phone is ringing during class,1432,108490,,,practice,marcus2_A,1,55552,18,"<?xml version=""1.0""?>\n<Clock xmlns:dt=""urn:schemas-microsoft-com:datatypes""><Description dt:dt=""string"">E-Prime Primary Realtime Clock</Description><StartTime><Timestamp dt:dt=""int"">0</Timestamp><DateUtc dt:dt=""string"">2015-05-06T17:28:56Z</DateUtc></StartTime><FrequencyChanges><FrequencyChange><Frequency dt:dt=""r8"">3192070000</Frequency><Timestamp dt:dt=""r8"">4.68333411156818E+16</Timestamp><Current dt:dt=""r8"">0</Current><DateUtc dt:dt=""string"">2015-05-06T17:28:56Z</DateUtc></FrequencyChange></FrequencyChanges></Clock>\n",5/6/15 10:28,75.001,Bodo,right,436436898,5/6/15,10:28:56,5:28:56 PM,female,6,,,,5,,,1,1110,117994,,,,,,,,,,,,,,,,,,,,,,,,,,,,,,,,,,8,1,6,,,,PracticeProcedure,PracticeList,nonsense,The floor concrete in the building,1723,116874,,,practice,marcus2_A,1,55552,18,"<?xml version=""1.0""?>\n<Clock xmlns:dt=""urn:schemas-microsoft-com:datatypes""><Description dt:dt=""string"">E-Prime Primary Realtime Clock</Description><StartTime><Timestamp dt:dt=""int"">0</Timestamp><DateUtc dt:dt=""string"">2015-05-06T17:28:56Z</DateUtc></StartTime><FrequencyChanges><FrequencyChange><Frequency dt:dt=""r8"">3192070000</Frequency><Timestamp dt:dt=""r8"">4.68333411156818E+16</Timestamp><Current dt:dt=""r8"">0</Current><DateUtc dt:dt=""string"">2015-05-06T17:28:56Z</DateUtc></FrequencyChange></FrequencyChanges></Clock>\n",5/6/15 10:28,75.001,Bodo,right,436436898,5/6/15,10:28:56,5:28:56 PM,female,7,,,,5,,,1,1214,124618,,,,,,,,,,,,,,,,,,,,,,,,,,,,,,,,,,7,1,7,,,,PracticeProcedure,PracticeList,nonsense,The sidewalk is coloring to the grass,1558,123402,,,practice,marcus2_A,1,55552,18,"<?xml version=""1.0""?>\n<Clock xmlns:dt=""urn:schemas-microsoft-com:datatypes""><Description dt:dt=""string"">E-Prime Primary Realtime Clock</Description><StartTime><Timestamp dt:dt=""int"">0</Timestamp><DateUtc dt:dt=""string"">2015-05-06T17:28:56Z</DateUtc></StartTime><FrequencyChanges><FrequencyChange><Frequency dt:dt=""r8"">3192070000</Frequency><Timestamp dt:dt=""r8"">4.68333411156818E+16</Timestamp><Current dt:dt=""r8"">0</Current><DateUtc dt:dt=""string"">2015-05-06T17:28:56Z</DateUtc></FrequencyChange></FrequencyChanges></Clock>\n",5/6/15 10:28,75.001,Bodo,right,436436898,5/6/15,10:28:56,5:28:56 PM,female,8,,,,9,,,1,1463,131081,,,,,,,,,,,,,,,,,,,,,,,,,,,,,,,,,,5,1,8,,,,PracticeProcedure,PracticeList,sense,The cup is sitting on the desk,1365,129609,,,practice,marcus2_A,1,55552,18,"<?xml version=""1.0""?>\n<Clock xmlns:dt=""urn:schemas-microsoft-com:datatypes""><Description dt:dt=""string"">E-Prime Primary Realtime Clock</Description><StartTime><Timestamp dt:dt=""int"">0</Timestamp><DateUtc dt:dt=""string"">2015-05-06T17:28:56Z</DateUtc></StartTime><FrequencyChanges><FrequencyChange><Frequency dt:dt=""r8"">3192070000</Frequency><Timestamp dt:dt=""r8"">4.68333411156818E+16</Timestamp><Current dt:dt=""r8"">0</Current><DateUtc dt:dt=""string"">2015-05-06T17:28:56Z</DateUtc></FrequencyChange></FrequencyChanges></Clock>\n",5/6/15 10:28,75.001,Bodo,right,436436898,5/6/15,10:28:56,5:28:56 PM,female,9,,,,5,,,1,722,136873,,,,,,,,,,,,,,,,,,,,,,,,,,,,,,,,,,11,1,9,,,,PracticeProcedure,PracticeList,nonsense,The mountain is swimming under the bridge,1399,136137,,,practice,marcus2_A,1,55552,18,"<?xml version=""1.0""?>\n<Clock xmlns:dt=""urn:schemas-microsoft-com:datatypes""><Description dt:dt=""string"">E-Prime Primary Realtime Clock</Description><StartTime><Timestamp dt:dt=""int"">0</Timestamp><DateUtc dt:dt=""string"">2015-05-06T17:28:56Z</DateUtc></StartTime><FrequencyChanges><FrequencyChange><Frequency dt:dt=""r8"">3192070000</Frequency><Timestamp dt:dt=""r8"">4.68333411156818E+16</Timestamp><Current dt:dt=""r8"">0</Current><DateUtc dt:dt=""string"">2015-05-06T17:28:56Z</DateUtc></FrequencyChange></FrequencyChanges></Clock>\n",5/6/15 10:28,75.001,Bodo,right,436436898,5/6/15,10:28:56,5:28:56 PM,female,10,,,,5,,,1,1274,143465,,,,,,,,,,,,,,,,,,,,,,,,,,,,,,,,,,10,1,10,,,,PracticeProcedure,PracticeList,nonsense,The girl is glimmering off the flowers,1554,142185,,,practice,marcus2_A,1,55552,18,"<?xml version=""1.0""?>\n<Clock xmlns:dt=""urn:schemas-microsoft-com:datatypes""><Description dt:dt=""string"">E-Prime Primary Realtime Clock</Description><StartTime><Timestamp dt:dt=""int"">0</Timestamp><DateUtc dt:dt=""string"">2015-05-06T17:28:56Z</DateUtc></StartTime><FrequencyChanges><FrequencyChange><Frequency dt:dt=""r8"">3192070000</Frequency><Timestamp dt:dt=""r8"">4.68333411156818E+16</Timestamp><Current dt:dt=""r8"">0</Current><DateUtc dt:dt=""string"">2015-05-06T17:28:56Z</DateUtc></FrequencyChange></FrequencyChanges></Clock>\n",5/6/15 10:28,75.001,Bodo,right,436436898,5/6/15,10:28:56,5:28:56 PM,female,11,,,,9,,,1,727,149065,,,,,,,,,,,,,,,,,,,,,,,,,,,,,,,,,,6,1,11,,,,PracticeProcedure,PracticeList,sense,The trees are blowing in the wind,1205,148329,,,practice,marcus2_A,1,55552,18,"<?xml version=""1.0""?>\n<Clock xmlns:dt=""urn:schemas-microsoft-com:datatypes""><Description dt:dt=""string"">E-Prime Primary Realtime Clock</Description><StartTime><Timestamp dt:dt=""int"">0</Timestamp><DateUtc dt:dt=""string"">2015-05-06T17:28:56Z</DateUtc></StartTime><FrequencyChanges><FrequencyChange><Frequency dt:dt=""r8"">3192070000</Frequency><Timestamp dt:dt=""r8"">4.68333411156818E+16</Timestamp><Current dt:dt=""r8"">0</Current><DateUtc dt:dt=""string"">2015-05-06T17:28:56Z</DateUtc></FrequencyChange></FrequencyChanges></Clock>\n",5/6/15 10:28,75.001,Bodo,right,436436898,5/6/15,10:28:56,5:28:56 PM,female,12,,,,5,,,1,631,154955,,,,,,,,,,,,,,,,,,,,,,,,,,,,,,,,,,12,1,12,,,,PracticeProcedure,PracticeList,nonsense,The hawk is measuring under the highway,1269,154313,,,practice,marcus2_A,1,55552,18,"<?xml version=""1.0""?>\n<Clock xmlns:dt=""urn:schemas-microsoft-com:datatypes""><Description dt:dt=""string"">E-Prime Primary Realtime Clock</Description><StartTime><Timestamp dt:dt=""int"">0</Timestamp><DateUtc dt:dt=""string"">2015-05-06T17:28:56Z</DateUtc></StartTime><FrequencyChanges><FrequencyChange><Frequency dt:dt=""r8"">3192070000</Frequency><Timestamp dt:dt=""r8"">4.68333411156818E+16</Timestamp><Current dt:dt=""r8"">0</Current><DateUtc dt:dt=""string"">2015-05-06T17:28:56Z</DateUtc></FrequencyChange></FrequencyChanges></Clock>\n",5/6/15 10:28,75.001,Bodo,right,436436898,5/6/15,10:28:56,5:28:56 PM,female,13,inanimate,close,FILLER,,5,,,,,,,,,28,,The block is piling across the tires,64,across,854,231431,,,1,5,5,638,233575,,,,,,4,1,1,,,,1491,232935,,,,,,,,,MainProcedure,MainExperimentFirst,nonsense,,,,The block is piling across the tires,,filler_nonsense,marcus2_A,1,55552,18,"<?xml version=""1.0""?>\n<Clock xmlns:dt=""urn:schemas-microsoft-com:datatypes""><Description dt:dt=""string"">E-Prime Primary Realtime Clock</Description><StartTime><Timestamp dt:dt=""int"">0</Timestamp><DateUtc dt:dt=""string"">2015-05-06T17:28:56Z</DateUtc></StartTime><FrequencyChanges><FrequencyChange><Frequency dt:dt=""r8"">3192070000</Frequency><Timestamp dt:dt=""r8"">4.68333411156818E+16</Timestamp><Current dt:dt=""r8"">0</Current><DateUtc dt:dt=""string"">2015-05-06T17:28:56Z</DateUtc></FrequencyChange></FrequencyChanges></Clock>\n",5/6/15 10:28,75.001,Bodo,right,436436898,5/6/15,10:28:56,5:28:56 PM,female,14,inanimate,far,FILLER,,9,,,,,,,,,,7,The book is on the table,25,other,1115,236199,,,1,9,9,638,237895,,,,,,3,1,2,,,,1051,237255,,,,,,,,,MainProcedure,MainExperimentFirst,sensible,,,,The book is on the table,,filler_sensible,marcus2_A,1,55552,18,"<?xml version=""1.0""?>\n<Clock xmlns:dt=""urn:schemas-microsoft-com:datatypes""><Description dt:dt=""string"">E-Prime Primary Realtime Clock</Description><StartTime><Timestamp dt:dt=""int"">0</Timestamp><DateUtc dt:dt=""string"">2015-05-06T17:28:56Z</DateUtc></StartTime><FrequencyChanges><FrequencyChange><Frequency dt:dt=""r8"">3192070000</Frequency><Timestamp dt:dt=""r8"">4.68333411156818E+16</Timestamp><Current dt:dt=""r8"">0</Current><DateUtc dt:dt=""string"">2015-05-06T17:28:56Z</DateUtc></FrequencyChange></FrequencyChanges></Clock>\n",5/6/15 10:28,75.001,Bodo,right,436436898,5/6/15,10:28:56,5:28:56 PM,female,15,human,far,SLOW,,9,16,,,,,,,The runner is bolting across the finish line,,,,16,across,639,240043,,,1,9,9,630,242247,,,,,,1,1,3,,,,1550,241607,,,,,,,,,MainProcedure,MainExperimentFirst,sensible,,,,The runner is prancing across the finish line,The runner is prancing across the finish line,primary,prance/boltmarcus2_A,1,55552,18,"<?xml version=""1.0""?>\n<Clock xmlns:dt=""urn:schemas-microsoft-com:datatypes""><Description dt:dt=""string"">E-Prime Primary Realtime Clock</Description><StartTime><Timestamp dt:dt=""int"">0</Timestamp><DateUtc dt:dt=""string"">2015-05-06T17:28:56Z</DateUtc></StartTime><FrequencyChanges><FrequencyChange><Frequency dt:dt=""r8"">3192070000</Frequency><Timestamp dt:dt=""r8"">4.68333411156818E+16</Timestamp><Current dt:dt=""r8"">0</Current><DateUtc dt:dt=""string"">2015-05-06T17:28:56Z</DateUtc></FrequencyChange></FrequencyChanges></Clock>\n",5/6/15 10:28,75.001,Bodo,right,436436898,5/6/15,10:28:56,5:28:56 PM,female,16,human,far,SLOW,,9,7,,,,,,,The woman is zooming across the campus,,,,7,across,563,244327,,,1,9,9,766,246823,,,,,,1,1,4,,,,1718,246055,,,,,,,,,MainProcedure,MainExperimentFirst,sensible,,,,The woman is meandering across the campus,The woman is meandering across the campus,primary,meander/zoommarcus2_A,1,55552,18,"<?xml version=""1.0""?>\n<Clock xmlns:dt=""urn:schemas-microsoft-com:datatypes""><Description dt:dt=""string"">E-Prime Primary Realtime Clock</Description><StartTime><Timestamp dt:dt=""int"">0</Timestamp><DateUtc dt:dt=""string"">2015-05-06T17:28:56Z</DateUtc></StartTime><FrequencyChanges><FrequencyChange><Frequency dt:dt=""r8"">3192070000</Frequency><Timestamp dt:dt=""r8"">4.68333411156818E+16</Timestamp><Current dt:dt=""r8"">0</Current><DateUtc dt:dt=""string"">2015-05-06T17:28:56Z</DateUtc></FrequencyChange></FrequencyChanges></Clock>\n",5/6/15 10:28,75.001,Bodo,right,436436898,5/6/15,10:28:56,5:28:56 PM,female,17,human,far,SLOW,,9,18,,,,,,,The football player is dancing across the end zone,,,,18,across,566,248903,,,1,9,9,1395,252199,,,,,,1,1,5,,,,1881,250791,,,,,,,,,MainProcedure,MainExperimentFirst,sensible,,,,The football player is shooting across the end zone,The football player is shooting across the end zone,primary,shoot/dancemarcus2_A,1,55552,18,"<?xml version=""1.0""?>\n<Clock xmlns:dt=""urn:schemas-microsoft-com:datatypes""><Description dt:dt=""string"">E-Prime Primary Realtime Clock</Description><StartTime><Timestamp dt:dt=""int"">0</Timestamp><DateUtc dt:dt=""string"">2015-05-06T17:28:56Z</DateUtc></StartTime><FrequencyChanges><FrequencyChange><Frequency dt:dt=""r8"">3192070000</Frequency><Timestamp dt:dt=""r8"">4.68333411156818E+16</Timestamp><Current dt:dt=""r8"">0</Current><DateUtc dt:dt=""string"">2015-05-06T17:28:56Z</DateUtc></FrequencyChange></FrequencyChanges></Clock>\n",5/6/15 10:28,75.001,Bodo,right,436436898,5/6/15,10:28:56,5:28:56 PM,female,18,inanimate,far,FILLER,,9,,,,,,,,,,8,The plate is on the counter,26,other,697,254407,,,1,9,9,670,256647,,,,,,3,1,6,,,,1558,255975,,,,,,,,,MainProcedure,MainExperimentFirst,sensible,,,,The plate is on the counter,,filler_sensible,marcus2_A,1,55552,18,"<?xml version=""1.0""?>\n<Clock xmlns:dt=""urn:schemas-microsoft-com:datatypes""><Description dt:dt=""string"">E-Prime Primary Realtime Clock</Description><StartTime><Timestamp dt:dt=""int"">0</Timestamp><DateUtc dt:dt=""string"">2015-05-06T17:28:56Z</DateUtc></StartTime><FrequencyChanges><FrequencyChange><Frequency dt:dt=""r8"">3192070000</Frequency><Timestamp dt:dt=""r8"">4.68333411156818E+16</Timestamp><Current dt:dt=""r8"">0</Current><DateUtc dt:dt=""string"">2015-05-06T17:28:56Z</DateUtc></FrequencyChange></FrequencyChanges></Clock>\n",5/6/15 10:28,75.001,Bodo,right,436436898,5/6/15,10:28:56,5:28:56 PM,female,19,animal,far,FILLER,,9,,,,,,,,,,17,The mouse is hiding behind the wall,35,other,371,258535,,,1,9,9,665,260615,,,,,,3,1,7,,,,1406,259943,,,,,,,,,MainProcedure,MainExperimentFirst,sensible,,,,The mouse is hiding behind the wall,,filler_sensible,marcus2_A,1,55552,18,"<?xml version=""1.0""?>\n<Clock xmlns:dt=""urn:schemas-microsoft-com:datatypes""><Description dt:dt=""string"">E-Prime Primary Realtime Clock</Description><StartTime><Timestamp dt:dt=""int"">0</Timestamp><DateUtc dt:dt=""string"">2015-05-06T17:28:56Z</DateUtc></StartTime><FrequencyChanges><FrequencyChange><Frequency dt:dt=""r8"">3192070000</Frequency><Timestamp dt:dt=""r8"">4.68333411156818E+16</Timestamp><Current dt:dt=""r8"">0</Current><DateUtc dt:dt=""string"">2015-05-06T17:28:56Z</DateUtc></FrequencyChange></FrequencyChanges></Clock>\n",5/6/15 10:28,75.001,Bodo,right,436436898,5/6/15,10:28:56,5:28:56 PM,female,20,animal,far,FILLER,,9,,,,,,,,,,14,The cat is resting in the corner,32,other,411,262535,,,1,9,9,793,264903,,,,,,3,1,8,,,,1569,264106,,,,,,,,,MainProcedure,MainExperimentFirst,sensible,,,,The cat is resting in the corner,,filler_sensible,marcus2_A,1,55552,18,"<?xml version=""1.0""?>\n<Clock xmlns:dt=""urn:schemas-microsoft-com:datatypes""><Description dt:dt=""string"">E-Prime Primary Realtime Clock</Description><StartTime><Timestamp dt:dt=""int"">0</Timestamp><DateUtc dt:dt=""string"">2015-05-06T17:28:56Z</DateUtc></StartTime><FrequencyChanges><FrequencyChange><Frequency dt:dt=""r8"">3192070000</Frequency><Timestamp dt:dt=""r8"">4.68333411156818E+16</Timestamp><Current dt:dt=""r8"">0</Current><DateUtc dt:dt=""string"">2015-05-06T17:28:56Z</DateUtc></FrequencyChange></FrequencyChanges></Clock>\n",5/6/15 10:28,75.001,Bodo,right,436436898,5/6/15,10:28:56,5:28:56 PM,female,21,human,close,FILLER,,5,,,,,,,,,14,,The trainer is walling up the horse,50,other,277,266694,,,1,5,5,602,268966,,,,,,4,1,9,,,,1661,268358,,,,,,,,,MainProcedure,MainExperimentFirst,nonsense,,,,The trainer is walling up the horse,,filler_nonsense,marcus2_A,1,55552,18,"<?xml version=""1.0""?>\n<Clock xmlns:dt=""urn:schemas-microsoft-com:datatypes""><Description dt:dt=""string"">E-Prime Primary Realtime Clock</Description><StartTime><Timestamp dt:dt=""int"">0</Timestamp><DateUtc dt:dt=""string"">2015-05-06T17:28:56Z</DateUtc></StartTime><FrequencyChanges><FrequencyChange><Frequency dt:dt=""r8"">3192070000</Frequency><Timestamp dt:dt=""r8"">4.68333411156818E+16</Timestamp><Current dt:dt=""r8"">0</Current><DateUtc dt:dt=""string"">2015-05-06T17:28:56Z</DateUtc></FrequencyChange></FrequencyChanges></Clock>\n",5/6/15 10:28,75.001,Bodo,right,436436898,5/6/15,10:28:56,5:28:56 PM,female,22,human,close,FILLER,,5,,,,,,,,,17,,The clerk is heating in the chips,53,other,498,270982,,,1,5,5,635,273158,,,,,,4,1,10,,,,1528,272518,,,,,,,,,MainProcedure,MainExperimentFirst,nonsense,,,,The clerk is heating in the chips,,filler_nonsense,marcus2_A,1,55552,18,"<?xml version=""1.0""?>\n<Clock xmlns:dt=""urn:schemas-microsoft-com:datatypes""><Description dt:dt=""string"">E-Prime Primary Realtime Clock</Description><StartTime><Timestamp dt:dt=""int"">0</Timestamp><DateUtc dt:dt=""string"">2015-05-06T17:28:56Z</DateUtc></StartTime><FrequencyChanges><FrequencyChange><Frequency dt:dt=""r8"">3192070000</Frequency><Timestamp dt:dt=""r8"">4.68333411156818E+16</Timestamp><Current dt:dt=""r8"">0</Current><DateUtc dt:dt=""string"">2015-05-06T17:28:56Z</DateUtc></FrequencyChange></FrequencyChanges></Clock>\n",5/6/15 10:28,75.001,Bodo,right,436436898,5/6/15,10:28:56,5:28:56 PM,female,23,human,far,FAST,,9,6,,,,,,,The girl is racing across the parking lot,,,,6,across,376,275046,,,1,9,9,662,277385,,,,,,2,1,11,,,,1653,276710,,,,,,,,,MainProcedure,MainExperimentFirst,sensible,,,,The girl is racing across the parking lot,The girl is hobbling across the parking lot,primary,hobble/racemarcus2_A,1,55552,18,"<?xml version=""1.0""?>\n<Clock xmlns:dt=""urn:schemas-microsoft-com:datatypes""><Description dt:dt=""string"">E-Prime Primary Realtime Clock</Description><StartTime><Timestamp dt:dt=""int"">0</Timestamp><DateUtc dt:dt=""string"">2015-05-06T17:28:56Z</DateUtc></StartTime><FrequencyChanges><FrequencyChange><Frequency dt:dt=""r8"">3192070000</Frequency><Timestamp dt:dt=""r8"">4.68333411156818E+16</Timestamp><Current dt:dt=""r8"">0</Current><DateUtc dt:dt=""string"">2015-05-06T17:28:56Z</DateUtc></FrequencyChange></FrequencyChanges></Clock>\n",5/6/15 10:28,75.001,Bodo,right,436436898,5/6/15,10:28:56,5:28:56 PM,female,24,inanimate,close,FILLER,,5,,,,,,,,,25,,The arrow is slithering across the bottle,61,across,341,279238,,,1,5,5,664,281894,,,,,,4,1,12,,,,1979,281222,,,,,,,,,MainProcedure,MainExperimentFirst,nonsense,,,,The arrow is slithering across the bottle,,filler_nonsense,marcus2_A,1,55552,18,"<?xml version=""1.0""?>\n<Clock xmlns:dt=""urn:schemas-microsoft-com:datatypes""><Description dt:dt=""string"">E-Prime Primary Realtime Clock</Description><StartTime><Timestamp dt:dt=""int"">0</Timestamp><DateUtc dt:dt=""string"">2015-05-06T17:28:56Z</DateUtc></StartTime><FrequencyChanges><FrequencyChange><Frequency dt:dt=""r8"">3192070000</Frequency><Timestamp dt:dt=""r8"">4.68333411156818E+16</Timestamp><Current dt:dt=""r8"">0</Current><DateUtc dt:dt=""string"">2015-05-06T17:28:56Z</DateUtc></FrequencyChange></FrequencyChanges></Clock>\n",5/6/15 10:28,75.001,Bodo,right,436436898,5/6/15,10:28:56,5:28:56 PM,female,25,inanimate,far,FILLER,,9,,,,,,,,,,1,The apple is rotting on the ground,19,other,379,283782,,,1,9,9,536,285926,,,,,,3,1,13,,,,1592,285382,,,,,,,,,MainProcedure,MainExperimentFirst,sensible,,,,The apple is rotting on the ground,,filler_sensible,marcus2_A,1,55552,18,"<?xml version=""1.0""?>\n<Clock xmlns:dt=""urn:schemas-microsoft-com:datatypes""><Description dt:dt=""string"">E-Prime Primary Realtime Clock</Description><StartTime><Timestamp dt:dt=""int"">0</Timestamp><DateUtc dt:dt=""string"">2015-05-06T17:28:56Z</DateUtc></StartTime><FrequencyChanges><FrequencyChange><Frequency dt:dt=""r8"">3192070000</Frequency><Timestamp dt:dt=""r8"">4.68333411156818E+16</Timestamp><Current dt:dt=""r8"">0</Current><DateUtc dt:dt=""string"">2015-05-06T17:28:56Z</DateUtc></FrequencyChange></FrequencyChanges></Clock>\n",5/6/15 10:28,75.001,Bodo,right,436436898,5/6/15,10:28:56,5:28:56 PM,female,26,animal,close,FILLER,,5,,,,,,,,,21,,The rabbit is asking in the carpet,57,other,275,287718,,,1,5,5,533,289830,,,,,,4,1,14,,,,1563,289286,,,,,,,,,MainProcedure,MainExperimentFirst,nonsense,,,,The rabbit is asking in the carpet,,filler_nonsense,marcus2_A,1,55552,18,"<?xml version=""1.0""?>\n<Clock xmlns:dt=""urn:schemas-microsoft-com:datatypes""><Description dt:dt=""string"">E-Prime Primary Realtime Clock</Description><StartTime><Timestamp dt:dt=""int"">0</Timestamp><DateUtc dt:dt=""string"">2015-05-06T17:28:56Z</DateUtc></StartTime><FrequencyChanges><FrequencyChange><Frequency dt:dt=""r8"">3192070000</Frequency><Timestamp dt:dt=""r8"">4.68333411156818E+16</Timestamp><Current dt:dt=""r8"">0</Current><DateUtc dt:dt=""string"">2015-05-06T17:28:56Z</DateUtc></FrequencyChange></FrequencyChanges></Clock>\n",5/6/15 10:28,75.001,Bodo,right,436436898,5/6/15,10:28:56,5:28:56 PM,female,27,inanimate,far,FILLER,,9,,,,,,,,,,9,The remote is underneath the couch,27,other,336,291686,,,1,9,9,533,293670,,,,,,3,1,15,,,,1429,293126,,,,,,,,,MainProcedure,MainExperimentFirst,sensible,,,,The remote is underneath the couch,,filler_sensible,marcus2_A,1,55552,18,"<?xml version=""1.0""?>\n<Clock xmlns:dt=""urn:schemas-microsoft-com:datatypes""><Description dt:dt=""string"">E-Prime Primary Realtime Clock</Description><StartTime><Timestamp dt:dt=""int"">0</Timestamp><DateUtc dt:dt=""string"">2015-05-06T17:28:56Z</DateUtc></StartTime><FrequencyChanges><FrequencyChange><Frequency dt:dt=""r8"">3192070000</Frequency><Timestamp dt:dt=""r8"">4.68333411156818E+16</Timestamp><Current dt:dt=""r8"">0</Current><DateUtc dt:dt=""string"">2015-05-06T17:28:56Z</DateUtc></FrequencyChange></FrequencyChanges></Clock>\n",5/6/15 10:28,75.001,Bodo,right,436436898,5/6/15,10:28:56,5:28:56 PM,female,28,human,close,FILLER,,5,,,,,,,,,13,,The boxer is cupping over the hill,49,other,240,295430,,,1,5,5,531,297414,,,,,,4,1,16,,,,1427,296870,,,,,,,,,MainProcedure,MainExperimentFirst,nonsense,,,,The boxer is cupping over the hill,,filler_nonsense,marcus2_A,1,55552,18,"<?xml version=""1.0""?>\n<Clock xmlns:dt=""urn:schemas-microsoft-com:datatypes""><Description dt:dt=""string"">E-Prime Primary Realtime Clock</Description><StartTime><Timestamp dt:dt=""int"">0</Timestamp><DateUtc dt:dt=""string"">2015-05-06T17:28:56Z</DateUtc></StartTime><FrequencyChanges><FrequencyChange><Frequency dt:dt=""r8"">3192070000</Frequency><Timestamp dt:dt=""r8"">4.68333411156818E+16</Timestamp><Current dt:dt=""r8"">0</Current><DateUtc dt:dt=""string"">2015-05-06T17:28:56Z</DateUtc></FrequencyChange></FrequencyChanges></Clock>\n",5/6/15 10:28,75.001,Bodo,right,436436898,5/6/15,10:28:56,5:28:56 PM,female,29,human,far,FAST,,9,17,,,,,,,The baseball player is dancing across home plate,,,,17,across,315,299238,,,1,9,9,1019,302182,,,,,,2,1,17,,,,1915,301158,,,,,,,,,MainProcedure,MainExperimentFirst,sensible,,,,The baseball player is dancing across home plate,The baseball player is shooting across home plate,primary,shoot/dancemarcus2_A,1,55552,18,"<?xml version=""1.0""?>\n<Clock xmlns:dt=""urn:schemas-microsoft-com:datatypes""><Description dt:dt=""string"">E-Prime Primary Realtime Clock</Description><StartTime><Timestamp dt:dt=""int"">0</Timestamp><DateUtc dt:dt=""string"">2015-05-06T17:28:56Z</DateUtc></StartTime><FrequencyChanges><FrequencyChange><Frequency dt:dt=""r8"">3192070000</Frequency><Timestamp dt:dt=""r8"">4.68333411156818E+16</Timestamp><Current dt:dt=""r8"">0</Current><DateUtc dt:dt=""string"">2015-05-06T17:28:56Z</DateUtc></FrequencyChange></FrequencyChanges></Clock>\n",5/6/15 10:28,75.001,Bodo,right,436436898,5/6/15,10:28:56,5:28:56 PM,female,30,human,close,FILLER,,5,,,,,,,,,12,,The grandfather is hiding across the email,48,across,341,304038,,,1,5,5,635,306278,,,,,,4,1,18,,,,1595,305638,,,,,,,,,MainProcedure,MainExperimentFirst,nonsense,,,,The grandfather is hiding across the email,,filler_nonsense,marcus2_A,1,55552,18,"<?xml version=""1.0""?>\n<Clock xmlns:dt=""urn:schemas-microsoft-com:datatypes""><Description dt:dt=""string"">E-Prime Primary Realtime Clock</Description><StartTime><Timestamp dt:dt=""int"">0</Timestamp><DateUtc dt:dt=""string"">2015-05-06T17:28:56Z</DateUtc></StartTime><FrequencyChanges><FrequencyChange><Frequency dt:dt=""r8"">3192070000</Frequency><Timestamp dt:dt=""r8"">4.68333411156818E+16</Timestamp><Current dt:dt=""r8"">0</Current><DateUtc dt:dt=""string"">2015-05-06T17:28:56Z</DateUtc></FrequencyChange></FrequencyChanges></Clock>\n",5/6/15 10:28,75.001,Bodo,right,436436898,5/6/15,10:28:56,5:28:56 PM,female,31,inanimate,close,FILLER,,5,,,,,,,,,34,,The cable is babbling under the roof,70,other,317,308107,,,0,5,9,1819,312102,,,,,,4,1,19,,,,2168,310278,,,,,,,,,MainProcedure,MainExperimentFirst,nonsense,,,,The cable is babbling under the roof,,filler_nonsense,marcus2_A,1,55552,18,"<?xml version=""1.0""?>\n<Clock xmlns:dt=""urn:schemas-microsoft-com:datatypes""><Description dt:dt=""string"">E-Prime Primary Realtime Clock</Description><StartTime><Timestamp dt:dt=""int"">0</Timestamp><DateUtc dt:dt=""string"">2015-05-06T17:28:56Z</DateUtc></StartTime><FrequencyChanges><FrequencyChange><Frequency dt:dt=""r8"">3192070000</Frequency><Timestamp dt:dt=""r8"">4.68333411156818E+16</Timestamp><Current dt:dt=""r8"">0</Current><DateUtc dt:dt=""string"">2015-05-06T17:28:56Z</DateUtc></FrequencyChange></FrequencyChanges></Clock>\n",5/6/15 10:28,75.001,Bodo,right,436436898,5/6/15,10:28:56,5:28:56 PM,female,32,human,close,FILLER,,5,,,,,,,,,8,,The operator is swallowing across the air,44,across,404,314021,,,1,5,5,434,316197,,,,,,4,1,20,,,,1719,315749,,,,,,,,,MainProcedure,MainExperimentFirst,nonsense,,,,The operator is swallowing across the air,,filler_nonsense,marcus2_A,1,55552,18,"<?xml version=""1.0""?>\n<Clock xmlns:dt=""urn:schemas-microsoft-com:datatypes""><Description dt:dt=""string"">E-Prime Primary Realtime Clock</Description><StartTime><Timestamp dt:dt=""int"">0</Timestamp><DateUtc dt:dt=""string"">2015-05-06T17:28:56Z</DateUtc></StartTime><FrequencyChanges><FrequencyChange><Frequency dt:dt=""r8"">3192070000</Frequency><Timestamp dt:dt=""r8"">4.68333411156818E+16</Timestamp><Current dt:dt=""r8"">0</Current><DateUtc dt:dt=""string"">2015-05-06T17:28:56Z</DateUtc></FrequencyChange></FrequencyChanges></Clock>\n",5/6/15 10:28,75.001,Bodo,right,436436898,5/6/15,10:28:56,5:28:56 PM,female,33,inanimate,close,FILLER,,5,,,,,,,,,33,,The stitching is blowing in the element,69,other,439,318149,,,1,5,5,1091,322028,,,,,,4,1,21,,,,2770,320933,,,,,,,,,MainProcedure,MainExperimentFirst,nonsense,,,,The stitching is blowing in the element,,filler_nonsense,marcus2_A,1,55552,18,"<?xml version=""1.0""?>\n<Clock xmlns:dt=""urn:schemas-microsoft-com:datatypes""><Description dt:dt=""string"">E-Prime Primary Realtime Clock</Description><StartTime><Timestamp dt:dt=""int"">0</Timestamp><DateUtc dt:dt=""string"">2015-05-06T17:28:56Z</DateUtc></StartTime><FrequencyChanges><FrequencyChange><Frequency dt:dt=""r8"">3192070000</Frequency><Timestamp dt:dt=""r8"">4.68333411156818E+16</Timestamp><Current dt:dt=""r8"">0</Current><DateUtc dt:dt=""string"">2015-05-06T17:28:56Z</DateUtc></FrequencyChange></FrequencyChanges></Clock>\n",5/6/15 10:28,75.001,Bodo,right,436436898,5/6/15,10:28:56,5:28:56 PM,female,34,inanimate,far,FILLER,,9,,,,,,,,,,2,The balloon is tied to a string,20,other,276,323813,,,1,9,9,509,325605,,,,,,3,1,22,,,,1276,325093,,,,,,,,,MainProcedure,MainExperimentFirst,sensible,,,,The balloon is tied to a string,,filler_sensible,marcus2_A,1,55552,18,"<?xml version=""1.0""?>\n<Clock xmlns:dt=""urn:schemas-microsoft-com:datatypes""><Description dt:dt=""string"">E-Prime Primary Realtime Clock</Description><StartTime><Timestamp dt:dt=""int"">0</Timestamp><DateUtc dt:dt=""string"">2015-05-06T17:28:56Z</DateUtc></StartTime><FrequencyChanges><FrequencyChange><Frequency dt:dt=""r8"">3192070000</Frequency><Timestamp dt:dt=""r8"">4.68333411156818E+16</Timestamp><Current dt:dt=""r8"">0</Current><DateUtc dt:dt=""string"">2015-05-06T17:28:56Z</DateUtc></FrequencyChange></FrequencyChanges></Clock>\n",5/6/15 10:28,75.001,Bodo,right,436436898,5/6/15,10:28:56,5:28:56 PM,female,35,inanimate,close,FILLER,,5,,,,,,,,,29,,The door is flying across the bandana,65,across,242,327365,,,1,5,5,436,329093,,,,,,4,1,23,,,,1269,328645,,,,,,,,,MainProcedure,MainExperimentFirst,nonsense,,,,The door is flying across the bandana,,filler_nonsense,marcus2_A,1,55552,18,"<?xml version=""1.0""?>\n<Clock xmlns:dt=""urn:schemas-microsoft-com:datatypes""><Description dt:dt=""string"">E-Prime Primary Realtime Clock</Description><StartTime><Timestamp dt:dt=""int"">0</Timestamp><DateUtc dt:dt=""string"">2015-05-06T17:28:56Z</DateUtc></StartTime><FrequencyChanges><FrequencyChange><Frequency dt:dt=""r8"">3192070000</Frequency><Timestamp dt:dt=""r8"">4.68333411156818E+16</Timestamp><Current dt:dt=""r8"">0</Current><DateUtc dt:dt=""string"">2015-05-06T17:28:56Z</DateUtc></FrequencyChange></FrequencyChanges></Clock>\n",5/6/15 10:28,75.001,Bodo,right,436436898,5/6/15,10:28:56,5:28:56 PM,female,36,human,close,FILLER,,5,,,,,,,,,4,,The doctor is flapping across the bark,40,across,250,330853,,,1,5,5,533,332709,,,,,,4,1,24,,,,1309,332165,,,,,,,,,MainProcedure,MainExperimentFirst,nonsense,,,,The doctor is flapping across the bark,,filler_nonsense,marcus2_A,1,55552,18,"<?xml version=""1.0""?>\n<Clock xmlns:dt=""urn:schemas-microsoft-com:datatypes""><Description dt:dt=""string"">E-Prime Primary Realtime Clock</Description><StartTime><Timestamp dt:dt=""int"">0</Timestamp><DateUtc dt:dt=""string"">2015-05-06T17:28:56Z</DateUtc></StartTime><FrequencyChanges><FrequencyChange><Frequency dt:dt=""r8"">3192070000</Frequency><Timestamp dt:dt=""r8"">4.68333411156818E+16</Timestamp><Current dt:dt=""r8"">0</Current><DateUtc dt:dt=""string"">2015-05-06T17:28:56Z</DateUtc></FrequencyChange></FrequencyChanges></Clock>\n",5/6/15 10:28,75.001,Bodo,right,436436898,5/6/15,10:28:56,5:28:56 PM,female,37,human,close,FILLER,,5,,,,,,,,,2,,The mailman is tingling across the silver,38,across,303,334533,,,1,5,5,533,336709,,,,,,4,1,25,,,,1629,336165,,,,,,,,,MainProcedure,MainExperimentFirst,nonsense,,,,The mailman is tingling across the silver,,filler_nonsense,marcus2_A,1,55552,18,"<?xml version=""1.0""?>\n<Clock xmlns:dt=""urn:schemas-microsoft-com:datatypes""><Description dt:dt=""string"">E-Prime Primary Realtime Clock</Description><StartTime><Timestamp dt:dt=""int"">0</Timestamp><DateUtc dt:dt=""string"">2015-05-06T17:28:56Z</DateUtc></StartTime><FrequencyChanges><FrequencyChange><Frequency dt:dt=""r8"">3192070000</Frequency><Timestamp dt:dt=""r8"">4.68333411156818E+16</Timestamp><Current dt:dt=""r8"">0</Current><DateUtc dt:dt=""string"">2015-05-06T17:28:56Z</DateUtc></FrequencyChange></FrequencyChanges></Clock>\n",5/6/15 10:28,75.001,Bodo,right,436436898,5/6/15,10:28:56,5:28:56 PM,female,38,human,close,FILLER,,5,,,,,,,,,16,,The salesman is sinking down the pen,52,other,253,338469,,,1,5,5,506,341189,,,,,,4,1,26,,,,2194,340677,,,,,,,,,MainProcedure,MainExperimentFirst,nonsense,,,,The salesman is sinking down the pen,,filler_nonsense,marcus2_A,1,55552,18,"<?xml version=""1.0""?>\n<Clock xmlns:dt=""urn:schemas-microsoft-com:datatypes""><Description dt:dt=""string"">E-Prime Primary Realtime Clock</Description><StartTime><Timestamp dt:dt=""int"">0</Timestamp><DateUtc dt:dt=""string"">2015-05-06T17:28:56Z</DateUtc></StartTime><FrequencyChanges><FrequencyChange><Frequency dt:dt=""r8"">3192070000</Frequency><Timestamp dt:dt=""r8"">4.68333411156818E+16</Timestamp><Current dt:dt=""r8"">0</Current><DateUtc dt:dt=""string"">2015-05-06T17:28:56Z</DateUtc></FrequencyChange></FrequencyChanges></Clock>\n",5/6/15 10:28,75.001,Bodo,right,436436898,5/6/15,10:28:56,5:28:56 PM,female,39,human,close,FILLER,,5,,,,,,,,,5,,The infant is dropping across the gum,41,across,349,343045,,,1,5,5,474,345477,,,,,,4,1,27,,,,1941,344997,,,,,,,,,MainProcedure,MainExperimentFirst,nonsense,,,,The infant is dropping across the gum,,filler_nonsense,marcus2_A,1,55552,18,"<?xml version=""1.0""?>\n<Clock xmlns:dt=""urn:schemas-microsoft-com:datatypes""><Description dt:dt=""string"">E-Prime Primary Realtime Clock</Description><StartTime><Timestamp dt:dt=""int"">0</Timestamp><DateUtc dt:dt=""string"">2015-05-06T17:28:56Z</DateUtc></StartTime><FrequencyChanges><FrequencyChange><Frequency dt:dt=""r8"">3192070000</Frequency><Timestamp dt:dt=""r8"">4.68333411156818E+16</Timestamp><Current dt:dt=""r8"">0</Current><DateUtc dt:dt=""string"">2015-05-06T17:28:56Z</DateUtc></FrequencyChange></FrequencyChanges></Clock>\n",5/6/15 10:28,75.001,Bodo,right,436436898,5/6/15,10:28:56,5:28:56 PM,female,40,animal,far,FILLER,,9,,,,,,,,,,18,The pig is playing in the mud,36,other,247,347237,,,1,9,9,442,348805,,,,,,3,1,28,,,,1114,348357,,,,,,,,,MainProcedure,MainExperimentFirst,sensible,,,,The pig is playing in the mud,,filler_sensible,marcus2_A,1,55552,18,"<?xml version=""1.0""?>\n<Clock xmlns:dt=""urn:schemas-microsoft-com:datatypes""><Description dt:dt=""string"">E-Prime Primary Realtime Clock</Description><StartTime><Timestamp dt:dt=""int"">0</Timestamp><DateUtc dt:dt=""string"">2015-05-06T17:28:56Z</DateUtc></StartTime><FrequencyChanges><FrequencyChange><Frequency dt:dt=""r8"">3192070000</Frequency><Timestamp dt:dt=""r8"">4.68333411156818E+16</Timestamp><Current dt:dt=""r8"">0</Current><DateUtc dt:dt=""string"">2015-05-06T17:28:56Z</DateUtc></FrequencyChange></FrequencyChanges></Clock>\n",5/6/15 10:28,75.001,Bodo,right,436436898,5/6/15,10:28:56,5:28:56 PM,female,41,human,close,FILLER,,5,,,,,,,,,7,,The girl is exaggerating under the phone,43,across,498,350821,,,1,5,5,597,354213,,,,,,4,1,29,,,,2775,353605,,,,,,,,,MainProcedure,MainExperimentFirst,nonsense,,,,The girl is exaggerating under the phone,,filler_nonsense,marcus2_A,1,55552,18,"<?xml version=""1.0""?>\n<Clock xmlns:dt=""urn:schemas-microsoft-com:datatypes""><Description dt:dt=""string"">E-Prime Primary Realtime Clock</Description><StartTime><Timestamp dt:dt=""int"">0</Timestamp><DateUtc dt:dt=""string"">2015-05-06T17:28:56Z</DateUtc></StartTime><FrequencyChanges><FrequencyChange><Frequency dt:dt=""r8"">3192070000</Frequency><Timestamp dt:dt=""r8"">4.68333411156818E+16</Timestamp><Current dt:dt=""r8"">0</Current><DateUtc dt:dt=""string"">2015-05-06T17:28:56Z</DateUtc></FrequencyChange></FrequencyChanges></Clock>\n",5/6/15 10:28,75.001,Bodo,right,436436898,5/6/15,10:28:56,5:28:56 PM,female,42,animal,close,FILLER,,5,,,,,,,,,23,,The frog is yelling over the laces,59,other,282,356005,,,1,5,5,541,358091,,,,,,4,1,30,,,,1524,357540,,,,,,,,,MainProcedure,MainExperimentFirst,nonsense,,,,The frog is yelling over the laces,,filler_nonsense,marcus2_A,1,55552,18,"<?xml version=""1.0""?>\n<Clock xmlns:dt=""urn:schemas-microsoft-com:datatypes""><Description dt:dt=""string"">E-Prime Primary Realtime Clock</Description><StartTime><Timestamp dt:dt=""int"">0</Timestamp><DateUtc dt:dt=""string"">2015-05-06T17:28:56Z</DateUtc></StartTime><FrequencyChanges><FrequencyChange><Frequency dt:dt=""r8"">3192070000</Frequency><Timestamp dt:dt=""r8"">4.68333411156818E+16</Timestamp><Current dt:dt=""r8"">0</Current><DateUtc dt:dt=""string"">2015-05-06T17:28:56Z</DateUtc></FrequencyChange></FrequencyChanges></Clock>\n",5/6/15 10:28,75.001,Bodo,right,436436898,5/6/15,10:28:56,5:28:56 PM,female,43,inanimate,far,FILLER,,9,,,,,,,,,,11,The bathroom is down the hall,29,other,241,359844,,,1,9,9,468,361444,,,,,,3,1,31,,,,1108,360964,,,,,,,,,MainProcedure,MainExperimentFirst,sensible,,,,The bathroom is down the hall,,filler_sensible,marcus2_A,1,55552,18,"<?xml version=""1.0""?>\n<Clock xmlns:dt=""urn:schemas-microsoft-com:datatypes""><Description dt:dt=""string"">E-Prime Primary Realtime Clock</Description><StartTime><Timestamp dt:dt=""int"">0</Timestamp><DateUtc dt:dt=""string"">2015-05-06T17:28:56Z</DateUtc></StartTime><FrequencyChanges><FrequencyChange><Frequency dt:dt=""r8"">3192070000</Frequency><Timestamp dt:dt=""r8"">4.68333411156818E+16</Timestamp><Current dt:dt=""r8"">0</Current><DateUtc dt:dt=""string"">2015-05-06T17:28:56Z</DateUtc></FrequencyChange></FrequencyChanges></Clock>\n",5/6/15 10:28,75.001,Bodo,right,436436898,5/6/15,10:28:56,5:28:56 PM,female,44,human,far,FAST,,9,14,,,,,,,The fireman is running across the rooftop,,,,14,across,241,363204,,,1,9,9,500,364996,,,,,,2,1,32,,,,1268,364484,,,,,,,,,MainProcedure,MainExperimentFirst,sensible,,,,The fireman is running across the rooftop,The fireman is tiptoing across the rooftop,primary,tiptoe/runmarcus2_A,1,55552,18,"<?xml version=""1.0""?>\n<Clock xmlns:dt=""urn:schemas-microsoft-com:datatypes""><Description dt:dt=""string"">E-Prime Primary Realtime Clock</Description><StartTime><Timestamp dt:dt=""int"">0</Timestamp><DateUtc dt:dt=""string"">2015-05-06T17:28:56Z</DateUtc></StartTime><FrequencyChanges><FrequencyChange><Frequency dt:dt=""r8"">3192070000</Frequency><Timestamp dt:dt=""r8"">4.68333411156818E+16</Timestamp><Current dt:dt=""r8"">0</Current><DateUtc dt:dt=""string"">2015-05-06T17:28:56Z</DateUtc></FrequencyChange></FrequencyChanges></Clock>\n",5/6/15 10:28,75.001,Bodo,right,436436898,5/6/15,10:28:56,5:28:56 PM,female,45,human,close,FILLER,,5,,,,,,,,,10,,The manager is pillowing across the coffee,46,across,246,366756,,,1,5,5,316,368452,,,,,,4,1,33,,,,1369,368132,,,,,,,,,MainProcedure,MainExperimentFirst,nonsense,,,,The manager is pillowing across the coffee,,filler_nonsense,marcus2_A,1,55552,18,"<?xml version=""1.0""?>\n<Clock xmlns:dt=""urn:schemas-microsoft-com:datatypes""><Description dt:dt=""string"">E-Prime Primary Realtime Clock</Description><StartTime><Timestamp dt:dt=""int"">0</Timestamp><DateUtc dt:dt=""string"">2015-05-06T17:28:56Z</DateUtc></StartTime><FrequencyChanges><FrequencyChange><Frequency dt:dt=""r8"">3192070000</Frequency><Timestamp dt:dt=""r8"">4.68333411156818E+16</Timestamp><Current dt:dt=""r8"">0</Current><DateUtc dt:dt=""string"">2015-05-06T17:28:56Z</DateUtc></FrequencyChange></FrequencyChanges></Clock>\n",5/6/15 10:28,75.001,Bodo,right,436436898,5/6/15,10:28:56,5:28:56 PM,female,46,human,far,SLOW,,9,1,,,,,,,The athlete is sprinting across the field,,,,1,across,441,370404,,,1,9,9,441,372164,,,,,,1,1,34,,,,1300,371716,,,,,,,,,MainProcedure,MainExperimentFirst,sensible,,,,The athlete is limping across the field,The athlete is limping across the field,primary,limp/sprintmarcus2_A,1,55552,18,"<?xml version=""1.0""?>\n<Clock xmlns:dt=""urn:schemas-microsoft-com:datatypes""><Description dt:dt=""string"">E-Prime Primary Realtime Clock</Description><StartTime><Timestamp dt:dt=""int"">0</Timestamp><DateUtc dt:dt=""string"">2015-05-06T17:28:56Z</DateUtc></StartTime><FrequencyChanges><FrequencyChange><Frequency dt:dt=""r8"">3192070000</Frequency><Timestamp dt:dt=""r8"">4.68333411156818E+16</Timestamp><Current dt:dt=""r8"">0</Current><DateUtc dt:dt=""string"">2015-05-06T17:28:56Z</DateUtc></FrequencyChange></FrequencyChanges></Clock>\n",5/6/15 10:28,75.001,Bodo,right,436436898,5/6/15,10:28:56,5:28:56 PM,female,47,human,far,FAST,,9,2,,,,,,,The runner is sprinting across the track,,,,2,across,305,373988,,,1,9,9,484,375914,,,,,,2,1,35,,,,1438,375428,,,,,,,,,MainProcedure,MainExperimentFirst,sensible,,,,The runner is sprinting across the track,The runner is limping across the track,primary,limp/sprintmarcus2_A,1,55552,18,"<?xml version=""1.0""?>\n<Clock xmlns:dt=""urn:schemas-microsoft-com:datatypes""><Description dt:dt=""string"">E-Prime Primary Realtime Clock</Description><StartTime><Timestamp dt:dt=""int"">0</Timestamp><DateUtc dt:dt=""string"">2015-05-06T17:28:56Z</DateUtc></StartTime><FrequencyChanges><FrequencyChange><Frequency dt:dt=""r8"">3192070000</Frequency><Timestamp dt:dt=""r8"">4.68333411156818E+16</Timestamp><Current dt:dt=""r8"">0</Current><DateUtc dt:dt=""string"">2015-05-06T17:28:56Z</DateUtc></FrequencyChange></FrequencyChanges></Clock>\n",5/6/15 10:28,75.001,Bodo,right,436436898,5/6/15,10:28:56,5:28:56 PM,female,48,human,far,SLOW,,9,5,,,,,,,The man is racing across the desert,,,,5,across,270,377700,,,1,9,9,476,379652,,,,,,1,1,36,,,,1462,379172,,,,,,,,,MainProcedure,MainExperimentFirst,sensible,,,,The man is hobbling across the desert,The man is hobbling across the desert,primary,hobble/racemarcus2_A,1,55552,18,"<?xml version=""1.0""?>\n<Clock xmlns:dt=""urn:schemas-microsoft-com:datatypes""><Description dt:dt=""string"">E-Prime Primary Realtime Clock</Description><StartTime><Timestamp dt:dt=""int"">0</Timestamp><DateUtc dt:dt=""string"">2015-05-06T17:28:56Z</DateUtc></StartTime><FrequencyChanges><FrequencyChange><Frequency dt:dt=""r8"">3192070000</Frequency><Timestamp dt:dt=""r8"">4.68333411156818E+16</Timestamp><Current dt:dt=""r8"">0</Current><DateUtc dt:dt=""string"">2015-05-06T17:28:56Z</DateUtc></FrequencyChange></FrequencyChanges></Clock>\n",5/6/15 10:28,75.001,Bodo,right,436436898,5/6/15,10:28:56,5:28:56 PM,female,49,,,,1,,,,,,1,502,436611,,,,,,,,,,,,,,,,,,,,,,,,,,,,,,,,,,3,1,1,PracticeProcedure2,PracticeSessionTwo,sense,The cow is grazing in the field,,,,,practice,marcus2_A,1,55552,18,"<?xml version=""1.0""?>\n<Clock xmlns:dt=""urn:schemas-microsoft-com:datatypes""><Description dt:dt=""string"">E-Prime Primary Realtime Clock</Description><StartTime><Timestamp dt:dt=""int"">0</Timestamp><DateUtc dt:dt=""string"">2015-05-06T17:28:56Z</DateUtc></StartTime><FrequencyChanges><FrequencyChange><Frequency dt:dt=""r8"">3192070000</Frequency><Timestamp dt:dt=""r8"">4.68333411156818E+16</Timestamp><Current dt:dt=""r8"">0</Current><DateUtc dt:dt=""string"">2015-05-06T17:28:56Z</DateUtc></FrequencyChange></FrequencyChanges></Clock>\n",5/6/15 10:28,75.001,Bodo,right,436436898,5/6/15,10:28:56,5:28:56 PM,female,50,,,,5,,,,,,1,510,441539,,,,,,,,,,,,,,,,,,,,,,,,,,,,,,,,,,7,1,2,PracticeProcedure2,PracticeSessionTwo,nonsense,The sidewalk is coloring to the grass,,,,,practice,marcus2_A,1,55552,18,"<?xml version=""1.0""?>\n<Clock xmlns:dt=""urn:schemas-microsoft-com:datatypes""><Description dt:dt=""string"">E-Prime Primary Realtime Clock</Description><StartTime><Timestamp dt:dt=""int"">0</Timestamp><DateUtc dt:dt=""string"">2015-05-06T17:28:56Z</DateUtc></StartTime><FrequencyChanges><FrequencyChange><Frequency dt:dt=""r8"">3192070000</Frequency><Timestamp dt:dt=""r8"">4.68333411156818E+16</Timestamp><Current dt:dt=""r8"">0</Current><DateUtc dt:dt=""string"">2015-05-06T17:28:56Z</DateUtc></FrequencyChange></FrequencyChanges></Clock>\n",5/6/15 10:28,75.001,Bodo,right,436436898,5/6/15,10:28:56,5:28:56 PM,female,51,,,,1,,,,,,1,438,446307,,,,,,,,,,,,,,,,,,,,,,,,,,,,,,,,,,1,1,3,PracticeProcedure2,PracticeSessionTwo,sense,The phone is ringing during class,,,,,practice,marcus2_A,1,55552,18,"<?xml version=""1.0""?>\n<Clock xmlns:dt=""urn:schemas-microsoft-com:datatypes""><Description dt:dt=""string"">E-Prime Primary Realtime Clock</Description><StartTime><Timestamp dt:dt=""int"">0</Timestamp><DateUtc dt:dt=""string"">2015-05-06T17:28:56Z</DateUtc></StartTime><FrequencyChanges><FrequencyChange><Frequency dt:dt=""r8"">3192070000</Frequency><Timestamp dt:dt=""r8"">4.68333411156818E+16</Timestamp><Current dt:dt=""r8"">0</Current><DateUtc dt:dt=""string"">2015-05-06T17:28:56Z</DateUtc></FrequencyChange></FrequencyChanges></Clock>\n",5/6/15 10:28,75.001,Bodo,right,436436898,5/6/15,10:28:56,5:28:56 PM,female,52,,,,5,,,,,,1,478,451267,,,,,,,,,,,,,,,,,,,,,,,,,,,,,,,,,,10,1,4,PracticeProcedure2,PracticeSessionTwo,nonsense,The girl is glimmering off the flowers,,,,,practice,marcus2_A,1,55552,18,"<?xml version=""1.0""?>\n<Clock xmlns:dt=""urn:schemas-microsoft-com:datatypes""><Description dt:dt=""string"">E-Prime Primary Realtime Clock</Description><StartTime><Timestamp dt:dt=""int"">0</Timestamp><DateUtc dt:dt=""string"">2015-05-06T17:28:56Z</DateUtc></StartTime><FrequencyChanges><FrequencyChange><Frequency dt:dt=""r8"">3192070000</Frequency><Timestamp dt:dt=""r8"">4.68333411156818E+16</Timestamp><Current dt:dt=""r8"">0</Current><DateUtc dt:dt=""string"">2015-05-06T17:28:56Z</DateUtc></FrequencyChange></FrequencyChanges></Clock>\n",5/6/15 10:28,75.001,Bodo,right,436436898,5/6/15,10:28:56,5:28:56 PM,female,53,,,,5,,,,,,1,501,456450,,,,,,,,,,,,,,,,,,,,,,,,,,,,,,,,,,9,1,5,PracticeProcedure2,PracticeSessionTwo,nonsense,The table is stretching by the tape,,,,,practice,marcus2_A,1,55552,18,"<?xml version=""1.0""?>\n<Clock xmlns:dt=""urn:schemas-microsoft-com:datatypes""><Description dt:dt=""string"">E-Prime Primary Realtime Clock</Description><StartTime><Timestamp dt:dt=""int"">0</Timestamp><DateUtc dt:dt=""string"">2015-05-06T17:28:56Z</DateUtc></StartTime><FrequencyChanges><FrequencyChange><Frequency dt:dt=""r8"">3192070000</Frequency><Timestamp dt:dt=""r8"">4.68333411156818E+16</Timestamp><Current dt:dt=""r8"">0</Current><DateUtc dt:dt=""string"">2015-05-06T17:28:56Z</DateUtc></FrequencyChange></FrequencyChanges></Clock>\n",5/6/15 10:28,75.001,Bodo,right,436436898,5/6/15,10:28:56,5:28:56 PM,female,54,,,,1,,,,,,1,405,461154,,,,,,,,,,,,,,,,,,,,,,,,,,,,,,,,,,5,1,6,PracticeProcedure2,PracticeSessionTwo,sense,The cup is sitting on the desk,,,,,practice,marcus2_A,1,55552,18,"<?xml version=""1.0""?>\n<Clock xmlns:dt=""urn:schemas-microsoft-com:datatypes""><Description dt:dt=""string"">E-Prime Primary Realtime Clock</Description><StartTime><Timestamp dt:dt=""int"">0</Timestamp><DateUtc dt:dt=""string"">2015-05-06T17:28:56Z</DateUtc></StartTime><FrequencyChanges><FrequencyChange><Frequency dt:dt=""r8"">3192070000</Frequency><Timestamp dt:dt=""r8"">4.68333411156818E+16</Timestamp><Current dt:dt=""r8"">0</Current><DateUtc dt:dt=""string"">2015-05-06T17:28:56Z</DateUtc></FrequencyChange></FrequencyChanges></Clock>\n",5/6/15 10:28,75.001,Bodo,right,436436898,5/6/15,10:28:56,5:28:56 PM,female,55,,,,1,,,,,,1,890,466346,,,,,,,,,,,,,,,,,,,,,,,,,,,,,,,,,,4,1,7,PracticeProcedure2,PracticeSessionTwo,sense,The arrow is pointing to the exit,,,,,practice,marcus2_A,1,55552,18,"<?xml version=""1.0""?>\n<Clock xmlns:dt=""urn:schemas-microsoft-com:datatypes""><Description dt:dt=""string"">E-Prime Primary Realtime Clock</Description><StartTime><Timestamp dt:dt=""int"">0</Timestamp><DateUtc dt:dt=""string"">2015-05-06T17:28:56Z</DateUtc></StartTime><FrequencyChanges><FrequencyChange><Frequency dt:dt=""r8"">3192070000</Frequency><Timestamp dt:dt=""r8"">4.68333411156818E+16</Timestamp><Current dt:dt=""r8"">0</Current><DateUtc dt:dt=""string"">2015-05-06T17:28:56Z</DateUtc></FrequencyChange></FrequencyChanges></Clock>\n",5/6/15 10:28,75.001,Bodo,right,436436898,5/6/15,10:28:56,5:28:56 PM,female,56,,,,1,,,,,,1,658,471714,,,,,,,,,,,,,,,,,,,,,,,,,,,,,,,,,,6,1,8,PracticeProcedure2,PracticeSessionTwo,sense,The trees are blowing in the wind,,,,,practice,marcus2_A,1,55552,18,"<?xml version=""1.0""?>\n<Clock xmlns:dt=""urn:schemas-microsoft-com:datatypes""><Description dt:dt=""string"">E-Prime Primary Realtime Clock</Description><StartTime><Timestamp dt:dt=""int"">0</Timestamp><DateUtc dt:dt=""string"">2015-05-06T17:28:56Z</DateUtc></StartTime><FrequencyChanges><FrequencyChange><Frequency dt:dt=""r8"">3192070000</Frequency><Timestamp dt:dt=""r8"">4.68333411156818E+16</Timestamp><Current dt:dt=""r8"">0</Current><DateUtc dt:dt=""string"">2015-05-06T17:28:56Z</DateUtc></FrequencyChange></FrequencyChanges></Clock>\n",5/6/15 10:28,75.001,Bodo,right,436436898,5/6/15,10:28:56,5:28:56 PM,female,57,,,,5,,,,,,1,381,476770,,,,,,,,,,,,,,,,,,,,,,,,,,,,,,,,,,8,1,9,PracticeProcedure2,PracticeSessionTwo,nonsense,The floor concrete in the building,,,,,practice,marcus2_A,1,55552,18,"<?xml version=""1.0""?>\n<Clock xmlns:dt=""urn:schemas-microsoft-com:datatypes""><Description dt:dt=""string"">E-Prime Primary Realtime Clock</Description><StartTime><Timestamp dt:dt=""int"">0</Timestamp><DateUtc dt:dt=""string"">2015-05-06T17:28:56Z</DateUtc></StartTime><FrequencyChanges><FrequencyChange><Frequency dt:dt=""r8"">3192070000</Frequency><Timestamp dt:dt=""r8"">4.68333411156818E+16</Timestamp><Current dt:dt=""r8"">0</Current><DateUtc dt:dt=""string"">2015-05-06T17:28:56Z</DateUtc></FrequencyChange></FrequencyChanges></Clock>\n",5/6/15 10:28,75.001,Bodo,right,436436898,5/6/15,10:28:56,5:28:56 PM,female,58,,,,1,,,,,,1,437,481506,,,,,,,,,,,,,,,,,,,,,,,,,,,,,,,,,,2,1,10,PracticeProcedure2,PracticeSessionTwo,sense,The water is boiling in the pot,,,,,practice,marcus2_A,1,55552,18,"<?xml version=""1.0""?>\n<Clock xmlns:dt=""urn:schemas-microsoft-com:datatypes""><Description dt:dt=""string"">E-Prime Primary Realtime Clock</Description><StartTime><Timestamp dt:dt=""int"">0</Timestamp><DateUtc dt:dt=""string"">2015-05-06T17:28:56Z</DateUtc></StartTime><FrequencyChanges><FrequencyChange><Frequency dt:dt=""r8"">3192070000</Frequency><Timestamp dt:dt=""r8"">4.68333411156818E+16</Timestamp><Current dt:dt=""r8"">0</Current><DateUtc dt:dt=""string"">2015-05-06T17:28:56Z</DateUtc></FrequencyChange></FrequencyChanges></Clock>\n",5/6/15 10:28,75.001,Bodo,right,436436898,5/6/15,10:28:56,5:28:56 PM,female,59,,,,5,,,,,,1,317,486306,,,,,,,,,,,,,,,,,,,,,,,,,,,,,,,,,,11,1,11,PracticeProcedure2,PracticeSessionTwo,nonsense,The mountain is swimming under the bridge,,,,,practice,marcus2_A,1,55552,18,"<?xml version=""1.0""?>\n<Clock xmlns:dt=""urn:schemas-microsoft-com:datatypes""><Description dt:dt=""string"">E-Prime Primary Realtime Clock</Description><StartTime><Timestamp dt:dt=""int"">0</Timestamp><DateUtc dt:dt=""string"">2015-05-06T17:28:56Z</DateUtc></StartTime><FrequencyChanges><FrequencyChange><Frequency dt:dt=""r8"">3192070000</Frequency><Timestamp dt:dt=""r8"">4.68333411156818E+16</Timestamp><Current dt:dt=""r8"">0</Current><DateUtc dt:dt=""string"">2015-05-06T17:28:56Z</DateUtc></FrequencyChange></FrequencyChanges></Clock>\n",5/6/15 10:28,75.001,Bodo,right,436436898,5/6/15,10:28:56,5:28:56 PM,female,60,,,,5,,,,,,1,339,491234,,,,,,,,,,,,,,,,,,,,,,,,,,,,,,,,,,12,1,12,PracticeProcedure2,PracticeSessionTwo,nonsense,The hawk is measuring under the highway,,,,,practice,marcus2_A,1,55552,18,"<?xml version=""1.0""?>\n<Clock xmlns:dt=""urn:schemas-microsoft-com:datatypes""><Description dt:dt=""string"">E-Prime Primary Realtime Clock</Description><StartTime><Timestamp dt:dt=""int"">0</Timestamp><DateUtc dt:dt=""string"">2015-05-06T17:28:56Z</DateUtc></StartTime><FrequencyChanges><FrequencyChange><Frequency dt:dt=""r8"">3192070000</Frequency><Timestamp dt:dt=""r8"">4.68333411156818E+16</Timestamp><Current dt:dt=""r8"">0</Current><DateUtc dt:dt=""string"">2015-05-06T17:28:56Z</DateUtc></FrequencyChange></FrequencyChanges></Clock>\n",5/6/15 10:28,75.001,Bodo,right,436436898,5/6/15,10:28:56,5:28:56 PM,female,61,human,far,FILLER,,5,,,,,,,,,6,,The dentist is coding across the beer,42,across,,,1495,502337,,,,,,1,5,5,594,504769,,,,4,1,1,,,1812,504161,,,,,,,MainProcedure2,MainExperimentSecond,nonsense,,,,The dentist is coding across the beer,,filler_nonsense,marcus2_A,1,55552,18,"<?xml version=""1.0""?>\n<Clock xmlns:dt=""urn:schemas-microsoft-com:datatypes""><Description dt:dt=""string"">E-Prime Primary Realtime Clock</Description><StartTime><Timestamp dt:dt=""int"">0</Timestamp><DateUtc dt:dt=""string"">2015-05-06T17:28:56Z</DateUtc></StartTime><FrequencyChanges><FrequencyChange><Frequency dt:dt=""r8"">3192070000</Frequency><Timestamp dt:dt=""r8"">4.68333411156818E+16</Timestamp><Current dt:dt=""r8"">0</Current><DateUtc dt:dt=""string"">2015-05-06T17:28:56Z</DateUtc></FrequencyChange></FrequencyChanges></Clock>\n",5/6/15 10:28,75.001,Bodo,right,436436898,5/6/15,10:28:56,5:28:56 PM,female,62,human,far,FILLER,,5,,,,,,,,,18,,The friend is signing down the lamp,54,other,,,439,506721,,,,,,1,5,5,530,510625,,,,4,1,2,,,3359,510081,,,,,,,MainProcedure2,MainExperimentSecond,nonsense,,,,The friend is signing down the lamp,,filler_nonsense,marcus2_A,1,55552,18,"<?xml version=""1.0""?>\n<Clock xmlns:dt=""urn:schemas-microsoft-com:datatypes""><Description dt:dt=""string"">E-Prime Primary Realtime Clock</Description><StartTime><Timestamp dt:dt=""int"">0</Timestamp><DateUtc dt:dt=""string"">2015-05-06T17:28:56Z</DateUtc></StartTime><FrequencyChanges><FrequencyChange><Frequency dt:dt=""r8"">3192070000</Frequency><Timestamp dt:dt=""r8"">4.68333411156818E+16</Timestamp><Current dt:dt=""r8"">0</Current><DateUtc dt:dt=""string"">2015-05-06T17:28:56Z</DateUtc></FrequencyChange></FrequencyChanges></Clock>\n",5/6/15 10:28,75.001,Bodo,right,436436898,5/6/15,10:28:56,5:28:56 PM,female,63,human,close,SLOW,,1,13,,,,,,,The robber is running across the room,,,,13,across,,,474,512609,,,,,,1,1,1,436,514305,,,,1,1,3,,,1242,513857,,,,,,,MainProcedure2,MainExperimentSecond,sensible,,,,The robber is tiptoing across the room,The robber is tiptoing across the room,primary,tiptoe/runmarcus2_A,1,55552,18,"<?xml version=""1.0""?>\n<Clock xmlns:dt=""urn:schemas-microsoft-com:datatypes""><Description dt:dt=""string"">E-Prime Primary Realtime Clock</Description><StartTime><Timestamp dt:dt=""int"">0</Timestamp><DateUtc dt:dt=""string"">2015-05-06T17:28:56Z</DateUtc></StartTime><FrequencyChanges><FrequencyChange><Frequency dt:dt=""r8"">3192070000</Frequency><Timestamp dt:dt=""r8"">4.68333411156818E+16</Timestamp><Current dt:dt=""r8"">0</Current><DateUtc dt:dt=""string"">2015-05-06T17:28:56Z</DateUtc></FrequencyChange></FrequencyChanges></Clock>\n",5/6/15 10:28,75.001,Bodo,right,436436898,5/6/15,10:28:56,5:28:56 PM,female,64,inanimate,far,FILLER,,5,,,,,,,,,32,,The square is bouncing to the beer,68,other,,,378,516193,,,,,,1,5,5,410,519265,,,,4,1,4,,,2647,518849,,,,,,,MainProcedure2,MainExperimentSecond,nonsense,,,,The square is bouncing to the beer,,filler_nonsense,marcus2_A,1,55552,18,"<?xml version=""1.0""?>\n<Clock xmlns:dt=""urn:schemas-microsoft-com:datatypes""><Description dt:dt=""string"">E-Prime Primary Realtime Clock</Description><StartTime><Timestamp dt:dt=""int"">0</Timestamp><DateUtc dt:dt=""string"">2015-05-06T17:28:56Z</DateUtc></StartTime><FrequencyChanges><FrequencyChange><Frequency dt:dt=""r8"">3192070000</Frequency><Timestamp dt:dt=""r8"">4.68333411156818E+16</Timestamp><Current dt:dt=""r8"">0</Current><DateUtc dt:dt=""string"">2015-05-06T17:28:56Z</DateUtc></FrequencyChange></FrequencyChanges></Clock>\n",5/6/15 10:28,75.001,Bodo,right,436436898,5/6/15,10:28:56,5:28:56 PM,female,65,human,close,FAST,,1,10,,,,,,,The performer is zipping across the stage,,,,10,across,,,410,521185,,,,,,1,1,1,604,523233,,,,2,1,5,,,1436,522625,,,,,,,MainProcedure2,MainExperimentSecond,sensible,,,,The performer is zipping across the stage,The performer is inching across the stage,primary,inch/zipmarcus2_A,1,55552,18,"<?xml version=""1.0""?>\n<Clock xmlns:dt=""urn:schemas-microsoft-com:datatypes""><Description dt:dt=""string"">E-Prime Primary Realtime Clock</Description><StartTime><Timestamp dt:dt=""int"">0</Timestamp><DateUtc dt:dt=""string"">2015-05-06T17:28:56Z</DateUtc></StartTime><FrequencyChanges><FrequencyChange><Frequency dt:dt=""r8"">3192070000</Frequency><Timestamp dt:dt=""r8"">4.68333411156818E+16</Timestamp><Current dt:dt=""r8"">0</Current><DateUtc dt:dt=""string"">2015-05-06T17:28:56Z</DateUtc></FrequencyChange></FrequencyChanges></Clock>\n",5/6/15 10:28,75.001,Bodo,right,436436898,5/6/15,10:28:56,5:28:56 PM,female,66,animal,close,FILLER,,1,,,,,,,,,,15,The snake is hiding under a rock,33,other,,,251,525000,,,,,,1,1,1,415,526657,,,,3,1,6,,,1239,526241,,,,,,,MainProcedure2,MainExperimentSecond,sensible,,,,The snake is hiding under a rock,,filler_sensible,marcus2_A,1,55552,18,"<?xml version=""1.0""?>\n<Clock xmlns:dt=""urn:schemas-microsoft-com:datatypes""><Description dt:dt=""string"">E-Prime Primary Realtime Clock</Description><StartTime><Timestamp dt:dt=""int"">0</Timestamp><DateUtc dt:dt=""string"">2015-05-06T17:28:56Z</DateUtc></StartTime><FrequencyChanges><FrequencyChange><Frequency dt:dt=""r8"">3192070000</Frequency><Timestamp dt:dt=""r8"">4.68333411156818E+16</Timestamp><Current dt:dt=""r8"">0</Current><DateUtc dt:dt=""string"">2015-05-06T17:28:56Z</DateUtc></FrequencyChange></FrequencyChanges></Clock>\n",5/6/15 10:28,75.001,Bodo,right,436436898,5/6/15,10:28:56,5:28:56 PM,female,67,human,close,SLOW,,1,12,,,,,,,The thief is speeding across the yard,,,,12,across,,,306,528481,,,,,,1,1,1,378,529953,,,,1,1,7,,,1074,529569,,,,,,,MainProcedure2,MainExperimentSecond,sensible,,,,The thief is creeping across the yard,The thief is creeping across the yard,primary,creep/speedmarcus2_A,1,55552,18,"<?xml version=""1.0""?>\n<Clock xmlns:dt=""urn:schemas-microsoft-com:datatypes""><Description dt:dt=""string"">E-Prime Primary Realtime Clock</Description><StartTime><Timestamp dt:dt=""int"">0</Timestamp><DateUtc dt:dt=""string"">2015-05-06T17:28:56Z</DateUtc></StartTime><FrequencyChanges><FrequencyChange><Frequency dt:dt=""r8"">3192070000</Frequency><Timestamp dt:dt=""r8"">4.68333411156818E+16</Timestamp><Current dt:dt=""r8"">0</Current><DateUtc dt:dt=""string"">2015-05-06T17:28:56Z</DateUtc></FrequencyChange></FrequencyChanges></Clock>\n",5/6/15 10:28,75.001,Bodo,right,436436898,5/6/15,10:28:56,5:28:56 PM,female,68,inanimate,close,FILLER,,1,,,,,,,,,,12,The wall is painted white,30,other,,,372,531841,,,,,,1,1,1,500,533409,,,,3,1,8,,,1042,532897,,,,,,,MainProcedure2,MainExperimentSecond,sensible,,,,The wall is painted white,,filler_sensible,marcus2_A,1,55552,18,"<?xml version=""1.0""?>\n<Clock xmlns:dt=""urn:schemas-microsoft-com:datatypes""><Description dt:dt=""string"">E-Prime Primary Realtime Clock</Description><StartTime><Timestamp dt:dt=""int"">0</Timestamp><DateUtc dt:dt=""string"">2015-05-06T17:28:56Z</DateUtc></StartTime><FrequencyChanges><FrequencyChange><Frequency dt:dt=""r8"">3192070000</Frequency><Timestamp dt:dt=""r8"">4.68333411156818E+16</Timestamp><Current dt:dt=""r8"">0</Current><DateUtc dt:dt=""string"">2015-05-06T17:28:56Z</DateUtc></FrequencyChange></FrequencyChanges></Clock>\n",5/6/15 10:28,75.001,Bodo,right,436436898,5/6/15,10:28:56,5:28:56 PM,female,69,human,far,FILLER,,5,,,,,,,,,15,,The nanny is widening down the toe,51,other,,,279,535201,,,,,,1,5,5,472,537154,,,,4,1,9,,,1471,536673,,,,,,,MainProcedure2,MainExperimentSecond,nonsense,,,,The nanny is widening down the toe,,filler_nonsense,marcus2_A,1,55552,18,"<?xml version=""1.0""?>\n<Clock xmlns:dt=""urn:schemas-microsoft-com:datatypes""><Description dt:dt=""string"">E-Prime Primary Realtime Clock</Description><StartTime><Timestamp dt:dt=""int"">0</Timestamp><DateUtc dt:dt=""string"">2015-05-06T17:28:56Z</DateUtc></StartTime><FrequencyChanges><FrequencyChange><Frequency dt:dt=""r8"">3192070000</Frequency><Timestamp dt:dt=""r8"">4.68333411156818E+16</Timestamp><Current dt:dt=""r8"">0</Current><DateUtc dt:dt=""string"">2015-05-06T17:28:56Z</DateUtc></FrequencyChange></FrequencyChanges></Clock>\n",5/6/15 10:28,75.001,Bodo,right,436436898,5/6/15,10:28:56,5:28:56 PM,female,70,inanimate,close,FILLER,,1,,,,,,,,,,10,The ice cream is in the freezer,28,other,,,180,538849,,,,,,1,1,1,510,540512,,,,3,1,10,,,1145,540000,,,,,,,MainProcedure2,MainExperimentSecond,sensible,,,,The ice cream is in the freezer,,filler_sensible,marcus2_A,1,55552,18,"<?xml version=""1.0""?>\n<Clock xmlns:dt=""urn:schemas-microsoft-com:datatypes""><Description dt:dt=""string"">E-Prime Primary Realtime Clock</Description><StartTime><Timestamp dt:dt=""int"">0</Timestamp><DateUtc dt:dt=""string"">2015-05-06T17:28:56Z</DateUtc></StartTime><FrequencyChanges><FrequencyChange><Frequency dt:dt=""r8"">3192070000</Frequency><Timestamp dt:dt=""r8"">4.68333411156818E+16</Timestamp><Current dt:dt=""r8"">0</Current><DateUtc dt:dt=""string"">2015-05-06T17:28:56Z</DateUtc></FrequencyChange></FrequencyChanges></Clock>\n",5/6/15 10:28,75.001,Bodo,right,436436898,5/6/15,10:28:56,5:28:56 PM,female,71,animal,far,FILLER,,5,,,,,,,,,24,,The pigeon is wrinkling around the plug,60,other,,,308,542336,,,,,,1,5,5,854,544736,,,,4,1,11,,,1524,543872,,,,,,,MainProcedure2,MainExperimentSecond,nonsense,,,,The pigeon is wrinkling around the plug,,filler_nonsense,marcus2_A,1,55552,18,"<?xml version=""1.0""?>\n<Clock xmlns:dt=""urn:schemas-microsoft-com:datatypes""><Description dt:dt=""string"">E-Prime Primary Realtime Clock</Description><StartTime><Timestamp dt:dt=""int"">0</Timestamp><DateUtc dt:dt=""string"">2015-05-06T17:28:56Z</DateUtc></StartTime><FrequencyChanges><FrequencyChange><Frequency dt:dt=""r8"">3192070000</Frequency><Timestamp dt:dt=""r8"">4.68333411156818E+16</Timestamp><Current dt:dt=""r8"">0</Current><DateUtc dt:dt=""string"">2015-05-06T17:28:56Z</DateUtc></FrequencyChange></FrequencyChanges></Clock>\n",5/6/15 10:28,75.001,Bodo,right,436436898,5/6/15,10:28:56,5:28:56 PM,female,72,human,close,FAST,,1,3,,,,,,,The boy is dashing across the lawn,,,,3,across,,,241,546496,,,,,,1,1,1,417,547939,,,,2,1,12,,,1012,547520,,,,,,,MainProcedure2,MainExperimentSecond,sensible,,,,The boy is dashing across the lawn,The boy is crawling across the lawn,primary,crawl/dashmarcus2_A,1,55552,18,"<?xml version=""1.0""?>\n<Clock xmlns:dt=""urn:schemas-microsoft-com:datatypes""><Description dt:dt=""string"">E-Prime Primary Realtime Clock</Description><StartTime><Timestamp dt:dt=""int"">0</Timestamp><DateUtc dt:dt=""string"">2015-05-06T17:28:56Z</DateUtc></StartTime><FrequencyChanges><FrequencyChange><Frequency dt:dt=""r8"">3192070000</Frequency><Timestamp dt:dt=""r8"">4.68333411156818E+16</Timestamp><Current dt:dt=""r8"">0</Current><DateUtc dt:dt=""string"">2015-05-06T17:28:56Z</DateUtc></FrequencyChange></FrequencyChanges></Clock>\n",5/6/15 10:28,75.001,Bodo,right,436436898,5/6/15,10:28:56,5:28:56 PM,female,73,human,far,FILLER,,5,,,,,,,,,1,,The teacher is puddling across the ceiling,37,across,,,241,549696,,,,,,1,5,5,508,551776,,,,4,1,13,,,1556,551264,,,,,,,MainProcedure2,MainExperimentSecond,nonsense,,,,The teacher is puddling across the ceiling,,filler_nonsense,marcus2_A,1,55552,18,"<?xml version=""1.0""?>\n<Clock xmlns:dt=""urn:schemas-microsoft-com:datatypes""><Description dt:dt=""string"">E-Prime Primary Realtime Clock</Description><StartTime><Timestamp dt:dt=""int"">0</Timestamp><DateUtc dt:dt=""string"">2015-05-06T17:28:56Z</DateUtc></StartTime><FrequencyChanges><FrequencyChange><Frequency dt:dt=""r8"">3192070000</Frequency><Timestamp dt:dt=""r8"">4.68333411156818E+16</Timestamp><Current dt:dt=""r8"">0</Current><DateUtc dt:dt=""string"">2015-05-06T17:28:56Z</DateUtc></FrequencyChange></FrequencyChanges></Clock>\n",5/6/15 10:28,75.001,Bodo,right,436436898,5/6/15,10:28:56,5:28:56 PM,female,74,human,close,FAST,,1,8,,,,,,,The student is zooming across the university,,,,7,across,,,273,553568,,,,,,1,1,1,665,555520,,,,2,1,14,,,1273,554848,,,,,,,MainProcedure2,MainExperimentSecond,sensible,,,,The student is zooming across the university,The student is meandering across the university,primary,meander/zoommarcus2_A,1,55552,18,"<?xml version=""1.0""?>\n<Clock xmlns:dt=""urn:schemas-microsoft-com:datatypes""><Description dt:dt=""string"">E-Prime Primary Realtime Clock</Description><StartTime><Timestamp dt:dt=""int"">0</Timestamp><DateUtc dt:dt=""string"">2015-05-06T17:28:56Z</DateUtc></StartTime><FrequencyChanges><FrequencyChange><Frequency dt:dt=""r8"">3192070000</Frequency><Timestamp dt:dt=""r8"">4.68333411156818E+16</Timestamp><Current dt:dt=""r8"">0</Current><DateUtc dt:dt=""string"">2015-05-06T17:28:56Z</DateUtc></FrequencyChange></FrequencyChanges></Clock>\n",5/6/15 10:28,75.001,Bodo,right,436436898,5/6/15,10:28:56,5:28:56 PM,female,75,inanimate,close,FILLER,,1,,,,,,,,,,3,The cloud is covering up the sun,21,other,,,288,557316,,,,,,1,1,1,438,558880,,,,3,1,15,,,1110,558432,,,,,,,MainProcedure2,MainExperimentSecond,sensible,,,,The cloud is covering up the sun,,filler_sensible,marcus2_A,1,55552,18,"<?xml version=""1.0""?>\n<Clock xmlns:dt=""urn:schemas-microsoft-com:datatypes""><Description dt:dt=""string"">E-Prime Primary Realtime Clock</Description><StartTime><Timestamp dt:dt=""int"">0</Timestamp><DateUtc dt:dt=""string"">2015-05-06T17:28:56Z</DateUtc></StartTime><FrequencyChanges><FrequencyChange><Frequency dt:dt=""r8"">3192070000</Frequency><Timestamp dt:dt=""r8"">4.68333411156818E+16</Timestamp><Current dt:dt=""r8"">0</Current><DateUtc dt:dt=""string"">2015-05-06T17:28:56Z</DateUtc></FrequencyChange></FrequencyChanges></Clock>\n",5/6/15 10:28,75.001,Bodo,right,436436898,5/6/15,10:28:56,5:28:56 PM,female,76,animal,close,FILLER,,1,,,,,,,,,,13,The bee is stinging his arm,31,other,,,284,560672,,,,,,1,1,1,670,562432,,,,3,1,16,,,1078,561760,,,,,,,MainProcedure2,MainExperimentSecond,sensible,,,,The bee is stinging his arm,,filler_sensible,marcus2_A,1,55552,18,"<?xml version=""1.0""?>\n<Clock xmlns:dt=""urn:schemas-microsoft-com:datatypes""><Description dt:dt=""string"">E-Prime Primary Realtime Clock</Description><StartTime><Timestamp dt:dt=""int"">0</Timestamp><DateUtc dt:dt=""string"">2015-05-06T17:28:56Z</DateUtc></StartTime><FrequencyChanges><FrequencyChange><Frequency dt:dt=""r8"">3192070000</Frequency><Timestamp dt:dt=""r8"">4.68333411156818E+16</Timestamp><Current dt:dt=""r8"">0</Current><DateUtc dt:dt=""string"">2015-05-06T17:28:56Z</DateUtc></FrequencyChange></FrequencyChanges></Clock>\n",5/6/15 10:28,75.001,Bodo,right,436436898,5/6/15,10:28:56,5:28:56 PM,female,77,inanimate,close,FILLER,,1,,,,,,,,,,5,The house is standing on the hill,23,other,,,244,564192,,,,,,0,1,5,2036,567424,,,,3,1,17,,,1174,565376,,,,,,,MainProcedure2,MainExperimentSecond,sensible,,,,The house is standing on the hill,,filler_sensible,marcus2_A,1,55552,18,"<?xml version=""1.0""?>\n<Clock xmlns:dt=""urn:schemas-microsoft-com:datatypes""><Description dt:dt=""string"">E-Prime Primary Realtime Clock</Description><StartTime><Timestamp dt:dt=""int"">0</Timestamp><DateUtc dt:dt=""string"">2015-05-06T17:28:56Z</DateUtc></StartTime><FrequencyChanges><FrequencyChange><Frequency dt:dt=""r8"">3192070000</Frequency><Timestamp dt:dt=""r8"">4.68333411156818E+16</Timestamp><Current dt:dt=""r8"">0</Current><DateUtc dt:dt=""string"">2015-05-06T17:28:56Z</DateUtc></FrequencyChange></FrequencyChanges></Clock>\n",5/6/15 10:28,75.001,Bodo,right,436436898,5/6/15,10:28:56,5:28:56 PM,female,78,human,close,SLOW,,1,15,,,,,,,The quarterback is bolting across the goal line,,,,15,across,,,281,569216,,,,,,1,1,1,515,571143,,,,1,1,18,,,1396,570624,,,,,,,MainProcedure2,MainExperimentSecond,sensible,,,,The quarterback is prancing across the goal line,The quarterback is prancing across the goal line,primary,prance/boltmarcus2_A,1,55552,18,"<?xml version=""1.0""?>\n<Clock xmlns:dt=""urn:schemas-microsoft-com:datatypes""><Description dt:dt=""string"">E-Prime Primary Realtime Clock</Description><StartTime><Timestamp dt:dt=""int"">0</Timestamp><DateUtc dt:dt=""string"">2015-05-06T17:28:56Z</DateUtc></StartTime><FrequencyChanges><FrequencyChange><Frequency dt:dt=""r8"">3192070000</Frequency><Timestamp dt:dt=""r8"">4.68333411156818E+16</Timestamp><Current dt:dt=""r8"">0</Current><DateUtc dt:dt=""string"">2015-05-06T17:28:56Z</DateUtc></FrequencyChange></FrequencyChanges></Clock>\n",5/6/15 10:28,75.001,Bodo,right,436436898,5/6/15,10:28:56,5:28:56 PM,female,79,inanimate,far,FILLER,,5,,,,,,,,,30,,The button is slurping across the zipper,66,across,,,278,572933,,,,,,1,5,5,308,575136,,,,4,1,19,,,1881,574816,,,,,,,MainProcedure2,MainExperimentSecond,nonsense,,,,The button is slurping across the zipper,,filler_nonsense,marcus2_A,1,55552,18,"<?xml version=""1.0""?>\n<Clock xmlns:dt=""urn:schemas-microsoft-com:datatypes""><Description dt:dt=""string"">E-Prime Primary Realtime Clock</Description><StartTime><Timestamp dt:dt=""int"">0</Timestamp><DateUtc dt:dt=""string"">2015-05-06T17:28:56Z</DateUtc></StartTime><FrequencyChanges><FrequencyChange><Frequency dt:dt=""r8"">3192070000</Frequency><Timestamp dt:dt=""r8"">4.68333411156818E+16</Timestamp><Current dt:dt=""r8"">0</Current><DateUtc dt:dt=""string"">2015-05-06T17:28:56Z</DateUtc></FrequencyChange></FrequencyChanges></Clock>\n",5/6/15 10:28,75.001,Bodo,right,436436898,5/6/15,10:28:56,5:28:56 PM,female,80,inanimate,close,FILLER,,1,,,,,,,,,,4,The hair is plugging up the drain,22,other,,,273,576928,,,,,,1,1,1,409,579264,,,,3,1,20,,,1913,578848,,,,,,,MainProcedure2,MainExperimentSecond,sensible,,,,The hair is plugging up the drain,,filler_sensible,marcus2_A,1,55552,18,"<?xml version=""1.0""?>\n<Clock xmlns:dt=""urn:schemas-microsoft-com:datatypes""><Description dt:dt=""string"">E-Prime Primary Realtime Clock</Description><StartTime><Timestamp dt:dt=""int"">0</Timestamp><DateUtc dt:dt=""string"">2015-05-06T17:28:56Z</DateUtc></StartTime><FrequencyChanges><FrequencyChange><Frequency dt:dt=""r8"">3192070000</Frequency><Timestamp dt:dt=""r8"">4.68333411156818E+16</Timestamp><Current dt:dt=""r8"">0</Current><DateUtc dt:dt=""string"">2015-05-06T17:28:56Z</DateUtc></FrequencyChange></FrequencyChanges></Clock>\n",5/6/15 10:28,75.001,Bodo,right,436436898,5/6/15,10:28:56,5:28:56 PM,female,81,human,far,FILLER,,5,,,,,,,,,11,,The tenant is putting across the wait,47,across,,,249,581024,,,,,,1,5,5,310,583552,,,,4,1,21,,,2204,583232,,,,,,,MainProcedure2,MainExperimentSecond,nonsense,,,,The tenant is putting across the wait,,filler_nonsense,marcus2_A,1,55552,18,"<?xml version=""1.0""?>\n<Clock xmlns:dt=""urn:schemas-microsoft-com:datatypes""><Description dt:dt=""string"">E-Prime Primary Realtime Clock</Description><StartTime><Timestamp dt:dt=""int"">0</Timestamp><DateUtc dt:dt=""string"">2015-05-06T17:28:56Z</DateUtc></StartTime><FrequencyChanges><FrequencyChange><Frequency dt:dt=""r8"">3192070000</Frequency><Timestamp dt:dt=""r8"">4.68333411156818E+16</Timestamp><Current dt:dt=""r8"">0</Current><DateUtc dt:dt=""string"">2015-05-06T17:28:56Z</DateUtc></FrequencyChange></FrequencyChanges></Clock>\n",5/6/15 10:28,75.001,Bodo,right,436436898,5/6/15,10:28:56,5:28:56 PM,female,82,animal,far,FILLER,,5,,,,,,,,,22,,The horse is emerging down the shoes,58,other,,,248,585316,,,,,,1,5,5,340,587008,,,,4,1,22,,,1333,586655,,,,,,,MainProcedure2,MainExperimentSecond,nonsense,,,,The horse is emerging down the shoes,,filler_nonsense,marcus2_A,1,55552,18,"<?xml version=""1.0""?>\n<Clock xmlns:dt=""urn:schemas-microsoft-com:datatypes""><Description dt:dt=""string"">E-Prime Primary Realtime Clock</Description><StartTime><Timestamp dt:dt=""int"">0</Timestamp><DateUtc dt:dt=""string"">2015-05-06T17:28:56Z</DateUtc></StartTime><FrequencyChanges><FrequencyChange><Frequency dt:dt=""r8"">3192070000</Frequency><Timestamp dt:dt=""r8"">4.68333411156818E+16</Timestamp><Current dt:dt=""r8"">0</Current><DateUtc dt:dt=""string"">2015-05-06T17:28:56Z</DateUtc></FrequencyChange></FrequencyChanges></Clock>\n",5/6/15 10:28,75.001,Bodo,right,436436898,5/6/15,10:28:56,5:28:56 PM,female,83,animal,far,FILLER,,5,,,,,,,,,20,,The ant is parading on the gum,56,other,,,277,588799,,,,,,1,5,5,798,591039,,,,4,1,23,,,1437,590239,,,,,,,MainProcedure2,MainExperimentSecond,nonsense,,,,The ant is parading on the gum,,filler_nonsense,marcus2_A,1,55552,18,"<?xml version=""1.0""?>\n<Clock xmlns:dt=""urn:schemas-microsoft-com:datatypes""><Description dt:dt=""string"">E-Prime Primary Realtime Clock</Description><StartTime><Timestamp dt:dt=""int"">0</Timestamp><DateUtc dt:dt=""string"">2015-05-06T17:28:56Z</DateUtc></StartTime><FrequencyChanges><FrequencyChange><Frequency dt:dt=""r8"">3192070000</Frequency><Timestamp dt:dt=""r8"">4.68333411156818E+16</Timestamp><Current dt:dt=""r8"">0</Current><DateUtc dt:dt=""string"">2015-05-06T17:28:56Z</DateUtc></FrequencyChange></FrequencyChanges></Clock>\n",5/6/15 10:28,75.001,Bodo,right,436436898,5/6/15,10:28:56,5:28:56 PM,female,84,animal,close,FILLER,,1,,,,,,,,,,16,The lion is sleeping during lunchtime,34,other,,,283,592831,,,,,,1,1,1,408,594463,,,,3,1,24,,,1206,594047,,,,,,,MainProcedure2,MainExperimentSecond,sensible,,,,The lion is sleeping during lunchtime,,filler_sensible,marcus2_A,1,55552,18,"<?xml version=""1.0""?>\n<Clock xmlns:dt=""urn:schemas-microsoft-com:datatypes""><Description dt:dt=""string"">E-Prime Primary Realtime Clock</Description><StartTime><Timestamp dt:dt=""int"">0</Timestamp><DateUtc dt:dt=""string"">2015-05-06T17:28:56Z</DateUtc></StartTime><FrequencyChanges><FrequencyChange><Frequency dt:dt=""r8"">3192070000</Frequency><Timestamp dt:dt=""r8"">4.68333411156818E+16</Timestamp><Current dt:dt=""r8"">0</Current><DateUtc dt:dt=""string"">2015-05-06T17:28:56Z</DateUtc></FrequencyChange></FrequencyChanges></Clock>\n",5/6/15 10:28,75.001,Bodo,right,436436898,5/6/15,10:28:56,5:28:56 PM,female,85,human,close,FAST,,1,11,,,,,,,The soldier is speeding across the meadow,,,,11,across,,,248,596223,,,,,,1,1,1,438,598079,,,,2,1,25,,,1403,597631,,,,,,,MainProcedure2,MainExperimentSecond,sensible,,,,The soldier is speeding across the meadow,The soldier is creeping across the meadow,primary,creep/speedmarcus2_A,1,55552,18,"<?xml version=""1.0""?>\n<Clock xmlns:dt=""urn:schemas-microsoft-com:datatypes""><Description dt:dt=""string"">E-Prime Primary Realtime Clock</Description><StartTime><Timestamp dt:dt=""int"">0</Timestamp><DateUtc dt:dt=""string"">2015-05-06T17:28:56Z</DateUtc></StartTime><FrequencyChanges><FrequencyChange><Frequency dt:dt=""r8"">3192070000</Frequency><Timestamp dt:dt=""r8"">4.68333411156818E+16</Timestamp><Current dt:dt=""r8"">0</Current><DateUtc dt:dt=""string"">2015-05-06T17:28:56Z</DateUtc></FrequencyChange></FrequencyChanges></Clock>\n",5/6/15 10:28,75.001,Bodo,right,436436898,5/6/15,10:28:56,5:28:56 PM,female,86,human,close,SLOW,,1,4,,,,,,,The robber is dashing across the patio,,,,4,across,,,251,599839,,,,,,1,1,1,566,601727,,,,1,1,26,,,1310,601151,,,,,,,MainProcedure2,MainExperimentSecond,sensible,,,,The robber is crawling across the patio,The robber is crawling across the patio,primary,crawl/dashmarcus2_A,1,55552,18,"<?xml version=""1.0""?>\n<Clock xmlns:dt=""urn:schemas-microsoft-com:datatypes""><Description dt:dt=""string"">E-Prime Primary Realtime Clock</Description><StartTime><Timestamp dt:dt=""int"">0</Timestamp><DateUtc dt:dt=""string"">2015-05-06T17:28:56Z</DateUtc></StartTime><FrequencyChanges><FrequencyChange><Frequency dt:dt=""r8"">3192070000</Frequency><Timestamp dt:dt=""r8"">4.68333411156818E+16</Timestamp><Current dt:dt=""r8"">0</Current><DateUtc dt:dt=""string"">2015-05-06T17:28:56Z</DateUtc></FrequencyChange></FrequencyChanges></Clock>\n",5/6/15 10:28,75.001,Bodo,right,436436898,5/6/15,10:28:56,5:28:56 PM,female,87,inanimate,far,FILLER,,5,,,,,,,,,36,,The gravel is purring across the desk,72,other,,,246,603487,,,,,,1,5,5,382,606143,,,,4,1,27,,,2264,605759,,,,,,,MainProcedure2,MainExperimentSecond,nonsense,,,,The gravel is purring across the desk,,filler_nonsense,marcus2_A,1,55552,18,"<?xml version=""1.0""?>\n<Clock xmlns:dt=""urn:schemas-microsoft-com:datatypes""><Description dt:dt=""string"">E-Prime Primary Realtime Clock</Description><StartTime><Timestamp dt:dt=""int"">0</Timestamp><DateUtc dt:dt=""string"">2015-05-06T17:28:56Z</DateUtc></StartTime><FrequencyChanges><FrequencyChange><Frequency dt:dt=""r8"">3192070000</Frequency><Timestamp dt:dt=""r8"">4.68333411156818E+16</Timestamp><Current dt:dt=""r8"">0</Current><DateUtc dt:dt=""string"">2015-05-06T17:28:56Z</DateUtc></FrequencyChange></FrequencyChanges></Clock>\n",5/6/15 10:28,75.001,Bodo,right,436436898,5/6/15,10:28:56,5:28:56 PM,female,88,inanimate,far,FILLER,,5,,,,,,,,,35,,The camera is turning of the shrub,71,other,,,280,607935,,,,,,1,5,5,891,610879,,,,4,1,28,,,2035,609983,,,,,,,MainProcedure2,MainExperimentSecond,nonsense,,,,The camera is turning of the shrub,,filler_nonsense,marcus2_A,1,55552,18,"<?xml version=""1.0""?>\n<Clock xmlns:dt=""urn:schemas-microsoft-com:datatypes""><Description dt:dt=""string"">E-Prime Primary Realtime Clock</Description><StartTime><Timestamp dt:dt=""int"">0</Timestamp><DateUtc dt:dt=""string"">2015-05-06T17:28:56Z</DateUtc></StartTime><FrequencyChanges><FrequencyChange><Frequency dt:dt=""r8"">3192070000</Frequency><Timestamp dt:dt=""r8"">4.68333411156818E+16</Timestamp><Current dt:dt=""r8"">0</Current><DateUtc dt:dt=""string"">2015-05-06T17:28:56Z</DateUtc></FrequencyChange></FrequencyChanges></Clock>\n",5/6/15 10:28,75.001,Bodo,right,436436898,5/6/15,10:28:56,5:28:56 PM,female,89,inanimate,far,FILLER,,5,,,,,,,,,27,,The bump is rolling across the rope,63,across,,,283,612671,,,,,,0,5,1,1718,617279,,,,4,1,29,,,2870,615551,,,,,,,MainProcedure2,MainExperimentSecond,nonsense,,,,The bump is rolling across the rope,,filler_nonsense,marcus2_A,1,55552,18,"<?xml version=""1.0""?>\n<Clock xmlns:dt=""urn:schemas-microsoft-com:datatypes""><Description dt:dt=""string"">E-Prime Primary Realtime Clock</Description><StartTime><Timestamp dt:dt=""int"">0</Timestamp><DateUtc dt:dt=""string"">2015-05-06T17:28:56Z</DateUtc></StartTime><FrequencyChanges><FrequencyChange><Frequency dt:dt=""r8"">3192070000</Frequency><Timestamp dt:dt=""r8"">4.68333411156818E+16</Timestamp><Current dt:dt=""r8"">0</Current><DateUtc dt:dt=""string"">2015-05-06T17:28:56Z</DateUtc></FrequencyChange></FrequencyChanges></Clock>\n",5/6/15 10:28,75.001,Bodo,right,436436898,5/6/15,10:28:56,5:28:56 PM,female,90,inanimate,far,FILLER,,5,,,,,,,,,31,,The smoke is rumbling of the turnip,67,other,,,283,619071,,,,,,1,5,5,350,621791,,,,4,1,30,,,2358,621439,,,,,,,MainProcedure2,MainExperimentSecond,nonsense,,,,The smoke is rumbling of the turnip,,filler_nonsense,marcus2_A,1,55552,18,"<?xml version=""1.0""?>\n<Clock xmlns:dt=""urn:schemas-microsoft-com:datatypes""><Description dt:dt=""string"">E-Prime Primary Realtime Clock</Description><StartTime><Timestamp dt:dt=""int"">0</Timestamp><DateUtc dt:dt=""string"">2015-05-06T17:28:56Z</DateUtc></StartTime><FrequencyChanges><FrequencyChange><Frequency dt:dt=""r8"">3192070000</Frequency><Timestamp dt:dt=""r8"">4.68333411156818E+16</Timestamp><Current dt:dt=""r8"">0</Current><DateUtc dt:dt=""string"">2015-05-06T17:28:56Z</DateUtc></FrequencyChange></FrequencyChanges></Clock>\n",5/6/15 10:28,75.001,Bodo,right,436436898,5/6/15,10:28:56,5:28:56 PM,female,91,animal,far,FILLER,,5,,,,,,,,,19,,The bug is planning over the sale,55,other,,,275,623583,,,,,,1,5,5,504,625919,,,,4,1,31,,,1819,625407,,,,,,,MainProcedure2,MainExperimentSecond,nonsense,,,,The bug is planning over the sale,,filler_nonsense,marcus2_A,1,55552,18,"<?xml version=""1.0""?>\n<Clock xmlns:dt=""urn:schemas-microsoft-com:datatypes""><Description dt:dt=""string"">E-Prime Primary Realtime Clock</Description><StartTime><Timestamp dt:dt=""int"">0</Timestamp><DateUtc dt:dt=""string"">2015-05-06T17:28:56Z</DateUtc></StartTime><FrequencyChanges><FrequencyChange><Frequency dt:dt=""r8"">3192070000</Frequency><Timestamp dt:dt=""r8"">4.68333411156818E+16</Timestamp><Current dt:dt=""r8"">0</Current><DateUtc dt:dt=""string"">2015-05-06T17:28:56Z</DateUtc></FrequencyChange></FrequencyChanges></Clock>\n",5/6/15 10:28,75.001,Bodo,right,436436898,5/6/15,10:28:56,5:28:56 PM,female,92,human,far,FILLER,,5,,,,,,,,,9,,The driver is opening across the shelf,45,across,,,251,627679,,,,,,0,5,1,470,629951,,,,4,1,32,,,1790,629471,,,,,,,MainProcedure2,MainExperimentSecond,nonsense,,,,The driver is opening across the shelf,,filler_nonsense,marcus2_A,1,55552,18,"<?xml version=""1.0""?>\n<Clock xmlns:dt=""urn:schemas-microsoft-com:datatypes""><Description dt:dt=""string"">E-Prime Primary Realtime Clock</Description><StartTime><Timestamp dt:dt=""int"">0</Timestamp><DateUtc dt:dt=""string"">2015-05-06T17:28:56Z</DateUtc></StartTime><FrequencyChanges><FrequencyChange><Frequency dt:dt=""r8"">3192070000</Frequency><Timestamp dt:dt=""r8"">4.68333411156818E+16</Timestamp><Current dt:dt=""r8"">0</Current><DateUtc dt:dt=""string"">2015-05-06T17:28:56Z</DateUtc></FrequencyChange></FrequencyChanges></Clock>\n",5/6/15 10:28,75.001,Bodo,right,436436898,5/6/15,10:28:56,5:28:56 PM,female,93,inanimate,far,FILLER,,5,,,,,,,,,26,,The ball is tickling across the monkey,62,across,,,371,631839,,,,,,1,5,5,410,635038,,,,4,1,33,,,2781,634622,,,,,,,MainProcedure2,MainExperimentSecond,nonsense,,,,The ball is tickling across the monkey,,filler_nonsense,marcus2_A,1,55552,18,"<?xml version=""1.0""?>\n<Clock xmlns:dt=""urn:schemas-microsoft-com:datatypes""><Description dt:dt=""string"">E-Prime Primary Realtime Clock</Description><StartTime><Timestamp dt:dt=""int"">0</Timestamp><DateUtc dt:dt=""string"">2015-05-06T17:28:56Z</DateUtc></StartTime><FrequencyChanges><FrequencyChange><Frequency dt:dt=""r8"">3192070000</Frequency><Timestamp dt:dt=""r8"">4.68333411156818E+16</Timestamp><Current dt:dt=""r8"">0</Current><DateUtc dt:dt=""string"">2015-05-06T17:28:56Z</DateUtc></FrequencyChange></FrequencyChanges></Clock>\n",5/6/15 10:28,75.001,Bodo,right,436436898,5/6/15,10:28:56,5:28:56 PM,female,94,inanimate,close,FILLER,,1,,,,,,,,,,6,The picture is hanging on the wall,24,other,,,314,636862,,,,,,1,1,1,346,638174,,,,3,1,34,,,954,637822,,,,,,,MainProcedure2,MainExperimentSecond,sensible,,,,The picture is hanging on the wall,,filler_sensible,marcus2_A,1,55552,18,"<?xml version=""1.0""?>\n<Clock xmlns:dt=""urn:schemas-microsoft-com:datatypes""><Description dt:dt=""string"">E-Prime Primary Realtime Clock</Description><StartTime><Timestamp dt:dt=""int"">0</Timestamp><DateUtc dt:dt=""string"">2015-05-06T17:28:56Z</DateUtc></StartTime><FrequencyChanges><FrequencyChange><Frequency dt:dt=""r8"">3192070000</Frequency><Timestamp dt:dt=""r8"">4.68333411156818E+16</Timestamp><Current dt:dt=""r8"">0</Current><DateUtc dt:dt=""string"">2015-05-06T17:28:56Z</DateUtc></FrequencyChange></FrequencyChanges></Clock>\n",5/6/15 10:28,75.001,Bodo,right,436436898,5/6/15,10:28:56,5:28:56 PM,female,95,human,close,FAST,,1,9,,,,,,,The dancer is zipping across the floor,,,,9,across,,,271,639966,,,,,,1,1,1,434,641502,,,,2,1,35,,,1079,641054,,,,,,,MainProcedure2,MainExperimentSecond,sensible,,,,The dancer is zipping across the floor,The dancer is inching across the floor,primary,inch/zipmarcus2_A,1,55552,18,"<?xml version=""1.0""?>\n<Clock xmlns:dt=""urn:schemas-microsoft-com:datatypes""><Description dt:dt=""string"">E-Prime Primary Realtime Clock</Description><StartTime><Timestamp dt:dt=""int"">0</Timestamp><DateUtc dt:dt=""string"">2015-05-06T17:28:56Z</DateUtc></StartTime><FrequencyChanges><FrequencyChange><Frequency dt:dt=""r8"">3192070000</Frequency><Timestamp dt:dt=""r8"">4.68333411156818E+16</Timestamp><Current dt:dt=""r8"">0</Current><DateUtc dt:dt=""string"">2015-05-06T17:28:56Z</DateUtc></FrequencyChange></FrequencyChanges></Clock>\n",5/6/15 10:28,75.001,Bodo,right,436436898,5/6/15,10:28:56,5:28:56 PM,female,96,human,far,FILLER,,5,,,,,,,,,3,,The mother is ringing across the cat,39,across,,,248,643262,,,,,,1,5,5,285,645246,,,,4,1,36,,,1690,644958,,,,,,,MainProcedure2,MainExperimentSecond,nonsense,,,,The mother is ringing across the cat,,filler_nonsense,marcus2_A,11,56230,19,"<?xml version=""1.0""?>\n<Clock xmlns:dt=""urn:schemas-microsoft-com:datatypes""><Description dt:dt=""string"">E-Prime Primary Realtime Clock</Description><StartTime><Timestamp dt:dt=""int"">0</Timestamp><DateUtc dt:dt=""string"">2015-05-06T19:46:22Z</DateUtc></StartTime><FrequencyChanges><FrequencyChange><Frequency dt:dt=""r8"">3192070000</Frequency><Timestamp dt:dt=""r8"">4.68596639213858E+16</Timestamp><Current dt:dt=""r8"">0</Current><DateUtc dt:dt=""string"">2015-05-06T19:46:22Z</DateUtc></FrequencyChange></FrequencyChanges></Clock>\n",5/6/15 12:46,75,AJ,right,-611963438,5/6/15,12:46:22,7:46:22 PM,male,1,,,,9,,,1,1619,129900,,,,,,,,,,,,,,,,,,,,,,,,,,,,,,,,,,4,1,1,,,,PracticeProcedure,PracticeList,sense,The arrow is pointing to the exit,3574,128268,,,practice,marcus2_A,11,56230,19,"<?xml version=""1.0""?>\n<Clock xmlns:dt=""urn:schemas-microsoft-com:datatypes""><Description dt:dt=""string"">E-Prime Primary Realtime Clock</Description><StartTime><Timestamp dt:dt=""int"">0</Timestamp><DateUtc dt:dt=""string"">2015-05-06T19:46:22Z</DateUtc></StartTime><FrequencyChanges><FrequencyChange><Frequency dt:dt=""r8"">3192070000</Frequency><Timestamp dt:dt=""r8"">4.68596639213858E+16</Timestamp><Current dt:dt=""r8"">0</Current><DateUtc dt:dt=""string"">2015-05-06T19:46:22Z</DateUtc></FrequencyChange></FrequencyChanges></Clock>\n",5/6/15 12:46,75,AJ,right,-611963438,5/6/15,12:46:22,7:46:22 PM,male,2,,,,5,,,1,1022,139596,,,,,,,,,,,,,,,,,,,,,,,,,,,,,,,,,,10,1,2,,,,PracticeProcedure,PracticeList,nonsense,The girl is glimmering off the flowers,4118,138572,,,practice,marcus2_A,11,56230,19,"<?xml version=""1.0""?>\n<Clock xmlns:dt=""urn:schemas-microsoft-com:datatypes""><Description dt:dt=""string"">E-Prime Primary Realtime Clock</Description><StartTime><Timestamp dt:dt=""int"">0</Timestamp><DateUtc dt:dt=""string"">2015-05-06T19:46:22Z</DateUtc></StartTime><FrequencyChanges><FrequencyChange><Frequency dt:dt=""r8"">3192070000</Frequency><Timestamp dt:dt=""r8"">4.68596639213858E+16</Timestamp><Current dt:dt=""r8"">0</Current><DateUtc dt:dt=""string"">2015-05-06T19:46:22Z</DateUtc></FrequencyChange></FrequencyChanges></Clock>\n",5/6/15 12:46,75,AJ,right,-611963438,5/6/15,12:46:22,7:46:22 PM,male,3,,,,9,,,1,1022,148876,,,,,,,,,,,,,,,,,,,,,,,,,,,,,,,,,,3,1,3,,,,PracticeProcedure,PracticeList,sense,The cow is grazing in the field,3865,147852,,,practice,marcus2_A,11,56230,19,"<?xml version=""1.0""?>\n<Clock xmlns:dt=""urn:schemas-microsoft-com:datatypes""><Description dt:dt=""string"">E-Prime Primary Realtime Clock</Description><StartTime><Timestamp dt:dt=""int"">0</Timestamp><DateUtc dt:dt=""string"">2015-05-06T19:46:22Z</DateUtc></StartTime><FrequencyChanges><FrequencyChange><Frequency dt:dt=""r8"">3192070000</Frequency><Timestamp dt:dt=""r8"">4.68596639213858E+16</Timestamp><Current dt:dt=""r8"">0</Current><DateUtc dt:dt=""string"">2015-05-06T19:46:22Z</DateUtc></FrequencyChange></FrequencyChanges></Clock>\n",5/6/15 12:46,75,AJ,right,-611963438,5/6/15,12:46:22,7:46:22 PM,male,4,,,,9,,,1,540,155020,,,,,,,,,,,,,,,,,,,,,,,,,,,,,,,,,,2,1,4,,,,PracticeProcedure,PracticeList,sense,The water is boiling in the pot,1822,154476,,,practice,marcus2_A,11,56230,19,"<?xml version=""1.0""?>\n<Clock xmlns:dt=""urn:schemas-microsoft-com:datatypes""><Description dt:dt=""string"">E-Prime Primary Realtime Clock</Description><StartTime><Timestamp dt:dt=""int"">0</Timestamp><DateUtc dt:dt=""string"">2015-05-06T19:46:22Z</DateUtc></StartTime><FrequencyChanges><FrequencyChange><Frequency dt:dt=""r8"">3192070000</Frequency><Timestamp dt:dt=""r8"">4.68596639213858E+16</Timestamp><Current dt:dt=""r8"">0</Current><DateUtc dt:dt=""string"">2015-05-06T19:46:22Z</DateUtc></FrequencyChange></FrequencyChanges></Clock>\n",5/6/15 12:46,75,AJ,right,-611963438,5/6/15,12:46:22,7:46:22 PM,male,5,,,,5,,,1,636,163116,,,,,,,,,,,,,,,,,,,,,,,,,,,,,,,,,,12,1,5,,,,PracticeProcedure,PracticeList,nonsense,The hawk is measuring under the highway,3289,162476,,,practice,marcus2_A,11,56230,19,"<?xml version=""1.0""?>\n<Clock xmlns:dt=""urn:schemas-microsoft-com:datatypes""><Description dt:dt=""string"">E-Prime Primary Realtime Clock</Description><StartTime><Timestamp dt:dt=""int"">0</Timestamp><DateUtc dt:dt=""string"">2015-05-06T19:46:22Z</DateUtc></StartTime><FrequencyChanges><FrequencyChange><Frequency dt:dt=""r8"">3192070000</Frequency><Timestamp dt:dt=""r8"">4.68596639213858E+16</Timestamp><Current dt:dt=""r8"">0</Current><DateUtc dt:dt=""string"">2015-05-06T19:46:22Z</DateUtc></FrequencyChange></FrequencyChanges></Clock>\n",5/6/15 12:46,75,AJ,right,-611963438,5/6/15,12:46:22,7:46:22 PM,male,6,,,,5,,,1,884,169804,,,,,,,,,,,,,,,,,,,,,,,,,,,,,,,,,,11,1,6,,,,PracticeProcedure,PracticeList,nonsense,The mountain is swimming under the bridge,1814,168908,,,practice,marcus2_A,11,56230,19,"<?xml version=""1.0""?>\n<Clock xmlns:dt=""urn:schemas-microsoft-com:datatypes""><Description dt:dt=""string"">E-Prime Primary Realtime Clock</Description><StartTime><Timestamp dt:dt=""int"">0</Timestamp><DateUtc dt:dt=""string"">2015-05-06T19:46:22Z</DateUtc></StartTime><FrequencyChanges><FrequencyChange><Frequency dt:dt=""r8"">3192070000</Frequency><Timestamp dt:dt=""r8"">4.68596639213858E+16</Timestamp><Current dt:dt=""r8"">0</Current><DateUtc dt:dt=""string"">2015-05-06T19:46:22Z</DateUtc></FrequencyChange></FrequencyChanges></Clock>\n",5/6/15 12:46,75,AJ,right,-611963438,5/6/15,12:46:22,7:46:22 PM,male,7,,,,9,,,1,472,175979,,,,,,,,,,,,,,,,,,,,,,,,,,,,,,,,,,1,1,7,,,,PracticeProcedure,PracticeList,sense,The phone is ringing during class,1845,175499,,,practice,marcus2_A,11,56230,19,"<?xml version=""1.0""?>\n<Clock xmlns:dt=""urn:schemas-microsoft-com:datatypes""><Description dt:dt=""string"">E-Prime Primary Realtime Clock</Description><StartTime><Timestamp dt:dt=""int"">0</Timestamp><DateUtc dt:dt=""string"">2015-05-06T19:46:22Z</DateUtc></StartTime><FrequencyChanges><FrequencyChange><Frequency dt:dt=""r8"">3192070000</Frequency><Timestamp dt:dt=""r8"">4.68596639213858E+16</Timestamp><Current dt:dt=""r8"">0</Current><DateUtc dt:dt=""string"">2015-05-06T19:46:22Z</DateUtc></FrequencyChange></FrequencyChanges></Clock>\n",5/6/15 12:46,75,AJ,right,-611963438,5/6/15,12:46:22,7:46:22 PM,male,8,,,,5,,,1,405,183339,,,,,,,,,,,,,,,,,,,,,,,,,,,,,,,,,,9,1,8,,,,PracticeProcedure,PracticeList,nonsense,The table is stretching by the tape,2936,182923,,,practice,marcus2_A,11,56230,19,"<?xml version=""1.0""?>\n<Clock xmlns:dt=""urn:schemas-microsoft-com:datatypes""><Description dt:dt=""string"">E-Prime Primary Realtime Clock</Description><StartTime><Timestamp dt:dt=""int"">0</Timestamp><DateUtc dt:dt=""string"">2015-05-06T19:46:22Z</DateUtc></StartTime><FrequencyChanges><FrequencyChange><Frequency dt:dt=""r8"">3192070000</Frequency><Timestamp dt:dt=""r8"">4.68596639213858E+16</Timestamp><Current dt:dt=""r8"">0</Current><DateUtc dt:dt=""string"">2015-05-06T19:46:22Z</DateUtc></FrequencyChange></FrequencyChanges></Clock>\n",5/6/15 12:46,75,AJ,right,-611963438,5/6/15,12:46:22,7:46:22 PM,male,9,,,,5,,,1,819,190859,,,,,,,,,,,,,,,,,,,,,,,,,,,,,,,,,,7,1,9,,,,PracticeProcedure,PracticeList,nonsense,The sidewalk is coloring to the grass,2654,190027,,,practice,marcus2_A,11,56230,19,"<?xml version=""1.0""?>\n<Clock xmlns:dt=""urn:schemas-microsoft-com:datatypes""><Description dt:dt=""string"">E-Prime Primary Realtime Clock</Description><StartTime><Timestamp dt:dt=""int"">0</Timestamp><DateUtc dt:dt=""string"">2015-05-06T19:46:22Z</DateUtc></StartTime><FrequencyChanges><FrequencyChange><Frequency dt:dt=""r8"">3192070000</Frequency><Timestamp dt:dt=""r8"">4.68596639213858E+16</Timestamp><Current dt:dt=""r8"">0</Current><DateUtc dt:dt=""string"">2015-05-06T19:46:22Z</DateUtc></FrequencyChange></FrequencyChanges></Clock>\n",5/6/15 12:46,75,AJ,right,-611963438,5/6/15,12:46:22,7:46:22 PM,male,10,,,,5,,,1,600,198187,,,,,,,,,,,,,,,,,,,,,,,,,,,,,,,,,,8,1,10,,,,PracticeProcedure,PracticeList,nonsense,The floor concrete in the building,2779,197579,,,practice,marcus2_A,11,56230,19,"<?xml version=""1.0""?>\n<Clock xmlns:dt=""urn:schemas-microsoft-com:datatypes""><Description dt:dt=""string"">E-Prime Primary Realtime Clock</Description><StartTime><Timestamp dt:dt=""int"">0</Timestamp><DateUtc dt:dt=""string"">2015-05-06T19:46:22Z</DateUtc></StartTime><FrequencyChanges><FrequencyChange><Frequency dt:dt=""r8"">3192070000</Frequency><Timestamp dt:dt=""r8"">4.68596639213858E+16</Timestamp><Current dt:dt=""r8"">0</Current><DateUtc dt:dt=""string"">2015-05-06T19:46:22Z</DateUtc></FrequencyChange></FrequencyChanges></Clock>\n",5/6/15 12:46,75,AJ,right,-611963438,5/6/15,12:46:22,7:46:22 PM,male,11,,,,9,,,0,1115,206795,,,,,,,,,,,,,,,,,,,,,,,,,,,,,,,,,,6,1,11,,,,PracticeProcedure,PracticeList,sense,The trees are blowing in the wind,3742,205675,,,practice,marcus2_A,11,56230,19,"<?xml version=""1.0""?>\n<Clock xmlns:dt=""urn:schemas-microsoft-com:datatypes""><Description dt:dt=""string"">E-Prime Primary Realtime Clock</Description><StartTime><Timestamp dt:dt=""int"">0</Timestamp><DateUtc dt:dt=""string"">2015-05-06T19:46:22Z</DateUtc></StartTime><FrequencyChanges><FrequencyChange><Frequency dt:dt=""r8"">3192070000</Frequency><Timestamp dt:dt=""r8"">4.68596639213858E+16</Timestamp><Current dt:dt=""r8"">0</Current><DateUtc dt:dt=""string"">2015-05-06T19:46:22Z</DateUtc></FrequencyChange></FrequencyChanges></Clock>\n",5/6/15 12:46,75,AJ,right,-611963438,5/6/15,12:46:22,7:46:22 PM,male,12,,,,9,,,0,755,215435,,,,,,,,,,,,,,,,,,,,,,,,,,,,,,,,,,5,1,12,,,,PracticeProcedure,PracticeList,sense,The cup is sitting on the desk,4093,214666,,,practice,marcus2_A,11,56230,19,"<?xml version=""1.0""?>\n<Clock xmlns:dt=""urn:schemas-microsoft-com:datatypes""><Description dt:dt=""string"">E-Prime Primary Realtime Clock</Description><StartTime><Timestamp dt:dt=""int"">0</Timestamp><DateUtc dt:dt=""string"">2015-05-06T19:46:22Z</DateUtc></StartTime><FrequencyChanges><FrequencyChange><Frequency dt:dt=""r8"">3192070000</Frequency><Timestamp dt:dt=""r8"">4.68596639213858E+16</Timestamp><Current dt:dt=""r8"">0</Current><DateUtc dt:dt=""string"">2015-05-06T19:46:22Z</DateUtc></FrequencyChange></FrequencyChanges></Clock>\n",5/6/15 12:46,75,AJ,right,-611963438,5/6/15,12:46:22,7:46:22 PM,male,13,human,close,FILLER,,5,,,,,,,,,9,,The driver is opening across the shelf,45,across,1212,265705,,,1,5,5,1239,270825,,,,,,4,1,1,,,,3871,269577,,,,,,,,,MainProcedure,MainExperimentFirst,nonsense,,,,The driver is opening across the shelf,,filler_nonsense,marcus2_A,11,56230,19,"<?xml version=""1.0""?>\n<Clock xmlns:dt=""urn:schemas-microsoft-com:datatypes""><Description dt:dt=""string"">E-Prime Primary Realtime Clock</Description><StartTime><Timestamp dt:dt=""int"">0</Timestamp><DateUtc dt:dt=""string"">2015-05-06T19:46:22Z</DateUtc></StartTime><FrequencyChanges><FrequencyChange><Frequency dt:dt=""r8"">3192070000</Frequency><Timestamp dt:dt=""r8"">4.68596639213858E+16</Timestamp><Current dt:dt=""r8"">0</Current><DateUtc dt:dt=""string"">2015-05-06T19:46:22Z</DateUtc></FrequencyChange></FrequencyChanges></Clock>\n",5/6/15 12:46,75,AJ,right,-611963438,5/6/15,12:46:22,7:46:22 PM,male,14,human,far,SLOW,,9,2,,,,,,,The runner is sprinting across the track,,,,2,across,1052,273385,,,1,9,9,1337,278377,,,,,,1,1,2,,,,3647,277033,,,,,,,,,MainProcedure,MainExperimentFirst,sensible,,,,The runner is limping across the track,The runner is limping across the track,primary,limp/sprintmarcus2_A,11,56230,19,"<?xml version=""1.0""?>\n<Clock xmlns:dt=""urn:schemas-microsoft-com:datatypes""><Description dt:dt=""string"">E-Prime Primary Realtime Clock</Description><StartTime><Timestamp dt:dt=""int"">0</Timestamp><DateUtc dt:dt=""string"">2015-05-06T19:46:22Z</DateUtc></StartTime><FrequencyChanges><FrequencyChange><Frequency dt:dt=""r8"">3192070000</Frequency><Timestamp dt:dt=""r8"">4.68596639213858E+16</Timestamp><Current dt:dt=""r8"">0</Current><DateUtc dt:dt=""string"">2015-05-06T19:46:22Z</DateUtc></FrequencyChange></FrequencyChanges></Clock>\n",5/6/15 12:46,75,AJ,right,-611963438,5/6/15,12:46:22,7:46:22 PM,male,15,animal,close,FILLER,,5,,,,,,,,,21,,The rabbit is asking in the carpet,57,other,756,280649,,,1,5,5,1428,285641,,,,,,4,1,3,,,,3548,284201,,,,,,,,,MainProcedure,MainExperimentFirst,nonsense,,,,The rabbit is asking in the carpet,,filler_nonsense,marcus2_A,11,56230,19,"<?xml version=""1.0""?>\n<Clock xmlns:dt=""urn:schemas-microsoft-com:datatypes""><Description dt:dt=""string"">E-Prime Primary Realtime Clock</Description><StartTime><Timestamp dt:dt=""int"">0</Timestamp><DateUtc dt:dt=""string"">2015-05-06T19:46:22Z</DateUtc></StartTime><FrequencyChanges><FrequencyChange><Frequency dt:dt=""r8"">3192070000</Frequency><Timestamp dt:dt=""r8"">4.68596639213858E+16</Timestamp><Current dt:dt=""r8"">0</Current><DateUtc dt:dt=""string"">2015-05-06T19:46:22Z</DateUtc></FrequencyChange></FrequencyChanges></Clock>\n",5/6/15 12:46,75,AJ,right,-611963438,5/6/15,12:46:22,7:46:22 PM,male,16,inanimate,far,FILLER,,9,,,,,,,,,,4,The hair is plugging up the drain,22,other,721,287881,,,1,9,9,439,291945,,,,,,3,1,4,,,,3604,291497,,,,,,,,,MainProcedure,MainExperimentFirst,sensible,,,,The hair is plugging up the drain,,filler_sensible,marcus2_A,11,56230,19,"<?xml version=""1.0""?>\n<Clock xmlns:dt=""urn:schemas-microsoft-com:datatypes""><Description dt:dt=""string"">E-Prime Primary Realtime Clock</Description><StartTime><Timestamp dt:dt=""int"">0</Timestamp><DateUtc dt:dt=""string"">2015-05-06T19:46:22Z</DateUtc></StartTime><FrequencyChanges><FrequencyChange><Frequency dt:dt=""r8"">3192070000</Frequency><Timestamp dt:dt=""r8"">4.68596639213858E+16</Timestamp><Current dt:dt=""r8"">0</Current><DateUtc dt:dt=""string"">2015-05-06T19:46:22Z</DateUtc></FrequencyChange></FrequencyChanges></Clock>\n",5/6/15 12:46,75,AJ,right,-611963438,5/6/15,12:46:22,7:46:22 PM,male,17,human,close,FILLER,,5,,,,,,,,,15,,The nanny is widening down the toe,51,other,956,294409,,,1,5,5,442,299721,,,,,,4,1,5,,,,4860,299273,,,,,,,,,MainProcedure,MainExperimentFirst,nonsense,,,,The nanny is widening down the toe,,filler_nonsense,